accl_x,accl_y,accl_z,gyro_x,gyro_y,gyro_z
 0.35,0.25,0.84, -4.38, 1.19, -1.56,
 0.36,0.25,0.83, -4.38, 1.19, -1.53,
 0.36,0.25,0.84, -4.49, 1.25, -1.74,
 0.37,0.26,0.84, -4.41, 1.13, -1.53,
 0.38,0.26,0.85, -4.55, 1.18, -1.16,
 0.38,0.26,0.85, -4.35, 1.40, -1.02,
 0.38,0.26,0.87, -4.66, 1.74, -1.33,
 0.38,0.26,0.86, -4.52, 1.77, -1.28,
 0.38,0.26,0.85, -5.05, 2.70, -1.82,
 0.39,0.25,0.86, -5.34, 3.71, -2.17,
 0.39,0.26,0.85, -5.36, 5.04, -2.81,
 0.37,0.25,0.84, -5.31, 5.45, -3.15,
 0.36,0.24,0.84, -5.39, 5.40, -3.37,
 0.36,0.24,0.83, -5.47, 5.40, -3.69,
 0.35,0.24,0.83, -5.76, 4.67, -3.37,
 0.35,0.25,0.84, -6.03, 3.94, -3.16,
 0.35,0.25,0.83, -6.32, 2.75, -2.60,
 0.35,0.25,0.84, -6.58, 1.59, -2.08,
 0.36,0.25,0.84, -6.31, 0.24, -1.98,
 0.37,0.25,0.85, -6.38, -0.84, -2.12,
 0.38,0.25,0.86, -6.17, -1.19, -2.20,
 0.38,0.25,0.87, -5.98, -0.76, -2.81,
 0.38,0.25,0.87, -6.11, 0.15, -3.25,
 0.38,0.25,0.87, -6.03, 1.18, -3.91,
 0.39,0.26,0.86, -5.98, 2.90, -4.69,
 0.37,0.26,0.86, -6.20, 3.91, -4.69,
 0.37,0.25,0.86, -6.00, 4.60, -5.97,
 0.37,0.25,0.86, -5.88, 5.54, -5.97,
 0.37,0.25,0.85, -5.48, 5.27, -5.11,
 0.35,0.25,0.84, -5.56, 4.12, -4.24,
 0.34,0.25,0.84, -5.60, 3.08, -3.80,
 0.35,0.25,0.84, -5.54, 2.37, -3.33,
 0.36,0.26,0.82, -5.31, 1.01, -1.13,
 0.34,0.24,0.84, -4.66, -0.24, -1.66,
 0.35,0.25,0.85, -5.94, -1.40, -3.21,
 0.39,0.25,0.84, -5.76, 1.54, -1.97,
 0.45,0.27,0.83, -4.21, 5.37, -0.05,
 0.34,0.34,0.90, -5.65, -1.40, 2.67,
 0.37,0.24,0.80, -5.01, 0.64, -2.98,
 0.40,0.28,0.87, -5.11, 2.99, -0.96,
 0.38,0.26,0.84, -6.02, 4.00, -2.78,
 0.37,0.27,0.85, -5.22, 3.60, -0.46,
 0.36,0.25,0.82, -4.98, 2.12, -0.41,
 0.35,0.25,0.86, -5.11, 1.40, 0.20,
 0.34,0.25,0.84, -5.05, 0.47, 1.44,
 0.34,0.23,0.85, -5.30, 0.31, 0.52,
 0.32,0.24,0.85, -6.12, -0.95, 0.15,
 0.35,0.24,0.85, -6.09, -1.27, 0.00,
 0.34,0.23,0.85, -5.88, -1.65, -0.75,
 0.36,0.23,0.85, -5.51, -0.99, -1.51,
 0.36,0.24,0.88, -6.12, -1.83, -3.18,
 0.37,0.25,0.87, -5.91, -0.85, -2.92,
 0.38,0.24,0.87, -6.40, 0.17, -3.77,
 0.38,0.25,0.88, -6.82, 1.15, -3.62,
 0.39,0.26,0.87, -6.84, 1.74, -2.99,
 0.38,0.25,0.86, -6.63, 2.75, -2.52,
 0.39,0.26,0.87, -6.72, 3.22, -0.81,
 0.36,0.24,0.86, -5.83, 3.69, -2.06,
 0.36,0.25,0.86, -5.05, 3.65, -1.27,
 0.35,0.26,0.85, -4.99, 3.04, -0.55,
 0.36,0.23,0.84, -4.50, 3.24, -0.78,
 0.34,0.25,0.85, -4.70, 1.85, -1.33,
 0.37,0.26,0.84, -4.24, 2.76, -0.43,
 0.37,0.25,0.85, -4.40, 2.73, -1.33,
 0.37,0.27,0.86, -4.08, 2.76, -1.24,
 0.40,0.26,0.84, -3.76, 3.69, -1.95,
 0.41,0.28,0.87, -3.94, 3.89, -0.76,
 0.42,0.26,0.85, -3.92, 5.48, -1.36,
 0.41,0.28,0.87, -4.78, 5.36, -2.47,
 0.45,0.29,0.85, -4.41, 6.87, -0.49,
 0.44,0.28,0.86, -5.02, 7.76, -0.66,
 0.42,0.29,0.86, -5.28, 7.77, 0.38,
 0.43,0.28,0.84, -4.76, 8.46, 1.76,
 0.43,0.27,0.83, -4.89, 9.13, 1.82,
 0.41,0.28,0.83, -4.90, 8.92, 2.12,
 0.40,0.27,0.81, -4.79, 8.27, 2.41,
 0.40,0.27,0.81, -5.42, 7.95, 2.11,
 0.39,0.28,0.82, -6.23, 7.74, 2.11,
 0.40,0.28,0.81, -6.55, 8.55, 2.67,
 0.39,0.28,0.81, -6.73, 7.37, 3.57,
 0.40,0.27,0.80, -6.78, 6.35, 5.45,
 0.38,0.26,0.79, -6.56, 5.44, 5.37,
 0.37,0.26,0.80, -6.60, 4.23, 5.02,
 0.38,0.25,0.79, -5.59, 3.48, 4.82,
 0.38,0.26,0.80, -4.98, 2.47, 4.49,
 0.39,0.25,0.80, -4.02, 1.89, 4.37,
 0.40,0.26,0.80, -3.50, 1.34, 4.52,
 0.39,0.26,0.81, -3.30, 1.50, 4.27,
 0.41,0.27,0.83, -3.57, 1.74, 4.85,
 0.38,0.26,0.84, -3.80, 1.37, 4.17,
 0.40,0.28,0.84, -4.15, 2.53, 4.81,
 0.40,0.27,0.83, -3.85, 3.02, 4.78,
 0.41,0.27,0.84, -3.68, 4.02, 5.51,
 0.40,0.27,0.85, -3.82, 3.95, 6.00,
 0.41,0.27,0.83, -3.82, 4.99, 5.88,
 0.42,0.27,0.84, -3.92, 6.75, 6.12,
 0.41,0.26,0.84, -3.97, 7.24, 6.35,
 0.40,0.26,0.84, -3.94, 7.30, 6.56,
 0.40,0.25,0.84, -4.15, 8.05, 6.53,
 0.38,0.25,0.84, -4.58, 8.55, 5.79,
 0.41,0.26,0.82, -4.21, 9.37, 6.76,
 0.39,0.24,0.84, -4.89, 9.48, 5.74,
 0.39,0.26,0.84, -4.99, 8.99, 7.71,
 0.36,0.25,0.83, -5.44, 7.04, 6.63,
 0.38,0.25,0.83, -5.15, 6.11, 8.85,
 0.33,0.23,0.85, -5.91, 3.44, 7.60,
 0.34,0.23,0.83, -5.19, 2.46, 8.24,
 0.31,0.23,0.85, -5.42, 0.76, 7.21,
 0.31,0.23,0.83, -4.61, -0.47, 7.28,
 0.31,0.23,0.85, -4.52, -1.69, 6.29,
 0.32,0.23,0.85, -3.76, -2.14, 6.12,
 0.32,0.23,0.85, -3.45, -1.89, 5.68,
 0.33,0.23,0.84, -3.45, -0.93, 4.69,
 0.35,0.25,0.87, -2.90, 0.08, 4.55,
 0.37,0.27,0.86, -2.41, 2.64, 5.15,
 0.38,0.26,0.85, -2.34, 4.87, 5.01,
 0.39,0.27,0.87, -2.50, 5.71, 4.95,
 0.40,0.26,0.86, -2.14, 5.68, 6.14,
 0.45,0.27,0.88, -3.68, 8.38, 9.51,
 0.39,0.24,0.86, -2.87, 10.02, 10.44,
 0.40,0.25,0.87, -3.63, 7.76, 13.62,
 0.32,0.22,0.85, -3.07, 5.05, 11.97,
 0.37,0.22,0.84, -4.29, 5.69, 12.32,
 0.30,0.21,0.85, -4.58, 3.86, 10.69,
 0.29,0.21,0.83, -3.48, 2.27, 10.08,
 0.30,0.20,0.81, -2.12, 1.69, 9.76,
 0.28,0.23,0.84, -1.85, -1.19, 9.45,
 0.30,0.24,0.83, -0.40, -3.13, 9.62,
 0.33,0.24,0.86, -0.95, -4.02, 11.45,
 0.35,0.25,0.86, -0.11, -3.59, 15.45,
 0.31,0.24,0.86, -0.92, -0.76, 13.91,
 0.35,0.24,0.90, -0.87, -3.94, 17.68,
 0.33,0.22,0.86, 0.70, 0.90, 13.13,
 0.33,0.23,0.89, 0.99, 1.71, 13.01,
 0.35,0.18,0.85, 0.29, 3.63, 12.44,
 0.37,0.21,0.92, 0.09, 2.20, 14.81,
 0.34,0.22,0.91, 0.76, 0.53, 13.33,
 0.37,0.22,0.88, 0.06, 0.95, 11.42,
 0.37,0.24,0.89, 1.54, 1.47, 10.18,
 0.32,0.22,0.86, 4.92, 2.52, 8.73,
 0.32,0.22,0.86, 6.26, 3.30, 6.55,
 0.44,0.23,0.88, 3.85, 3.11, 10.93,
 0.35,0.23,0.89, 3.24, 1.34, 9.97,
 0.42,0.21,0.87, 2.99, 4.12, 11.27,
 0.37,0.23,0.92, 0.46, 2.37, 9.56,
 0.38,0.27,0.90, 0.23, 5.18, 9.13,
 0.38,0.26,0.92, -3.21, 4.53, 10.79,
 0.35,0.21,0.91, -3.88, 4.47, 9.48,
 0.33,0.23,0.92, -4.52, 0.87, 11.22,
 0.38,0.24,0.87, -7.37, 1.62, 12.09,
 0.34,0.26,0.92, -10.90, -0.46, 11.34,
 0.42,0.25,0.89, -11.53, -1.76, 16.73,
 0.42,0.18,0.87, -6.70, -0.81, 20.64,
 0.23,0.18,0.84, -4.75, -3.33, 9.28,
 0.34,0.22,0.84, -3.74, -1.34, 7.92,
 0.36,0.22,0.86, -3.86, 0.37, 5.89,
 0.35,0.23,0.87, -4.14, 2.50, 3.76,
 0.36,0.22,0.86, -4.63, 5.95, 0.93,
 0.35,0.23,0.86, -3.68, 6.90, 0.58,
 0.36,0.24,0.87, -3.83, 8.08, 1.88,
 0.35,0.25,0.87, -4.24, 8.44, 2.46,
 0.37,0.25,0.85, -4.34, 9.34, 3.05,
 0.33,0.23,0.88, -4.66, 8.96, 2.52,
 0.33,0.24,0.87, -2.98, 4.53, -3.88,
 0.40,0.23,0.85, -2.93, 5.69, 3.73,
 0.36,0.22,0.88, -4.02, 6.81, 6.05,
 0.34,0.22,0.89, -4.31, 3.85, 5.98,
 0.33,0.22,0.86, -3.18, 3.45, 5.59,
 0.33,0.23,0.85, -4.96, 2.81, 6.72,
 0.33,0.22,0.87, -4.66, 3.08, 5.48,
 0.34,0.23,0.87, -4.70, 3.16, 4.61,
 0.35,0.23,0.86, -4.52, 3.80, 5.62,
 0.36,0.22,0.86, -4.61, 5.98, 4.78,
 0.36,0.23,0.86, -4.52, 7.42, 6.24,
 0.37,0.23,0.86, -3.95, 8.08, 7.66,
 0.36,0.22,0.86, -3.80, 8.99, 8.08,
 0.30,0.24,0.86, -4.18, 4.67, 10.46,
 0.32,0.22,0.87, -1.94, 8.35, 11.27,
 0.29,0.22,0.86, -4.29, 9.48, 9.34,
 0.35,0.23,0.84, -3.16, 10.73, 10.15,
 0.32,0.22,0.87, -2.50, 9.08, 9.91,
 0.36,0.22,0.83, -1.51, 9.34, 9.79,
 0.33,0.22,0.86, -2.38, 9.11, 8.63,
 0.35,0.23,0.85, -2.09, 8.73, 9.01,
 0.37,0.23,0.86, -1.59, 8.53, 9.27,
 0.39,0.24,0.85, -0.96, 8.95, 11.47,
 0.33,0.21,0.87, -2.24, 8.44, 9.31,
 0.35,0.23,0.86, -3.21, 8.69, 10.27,
 0.35,0.19,0.85, -3.34, 9.57, 8.82,
 0.34,0.21,0.88, -3.44, 10.72, 8.63,
 0.35,0.22,0.86, -3.71, 11.60, 8.21,
 0.33,0.21,0.86, -3.66, 12.20, 7.77,
 0.34,0.21,0.86, -3.53, 11.77, 7.51,
 0.33,0.21,0.87, -3.59, 10.92, 8.18,
 0.32,0.23,0.86, -3.22, 10.15, 8.73,
 0.32,0.23,0.86, -2.85, 9.19, 9.53,
 0.32,0.24,0.86, -3.02, 8.63, 10.03,
 0.31,0.24,0.86, -3.01, 8.06, 9.57,
 0.31,0.24,0.86, -3.51, 7.25, 9.47,
 0.31,0.24,0.86, -2.73, 7.16, 9.50,
 0.33,0.24,0.86, -2.81, 7.54, 10.21,
 0.32,0.22,0.85, -3.04, 7.98, 9.08,
 0.33,0.24,0.86, -3.44, 8.67, 8.69,
 0.34,0.23,0.86, -3.11, 8.92, 9.05,
 0.34,0.23,0.86, -3.21, 9.44, 8.78,
 0.35,0.23,0.85, -2.99, 9.91, 8.70,
 0.34,0.23,0.85, -3.28, 9.01, 8.82,
 0.34,0.23,0.85, -3.15, 8.60, 8.75,
 0.34,0.22,0.85, -2.85, 8.00, 9.71,
 0.33,0.23,0.85, -3.19, 6.76, 9.11,
 0.34,0.23,0.85, -2.76, 6.75, 9.39,
 0.34,0.22,0.84, -2.75, 6.73, 9.24,
 0.35,0.22,0.83, -1.88, 7.25, 10.41,
 0.32,0.22,0.85, -2.81, 6.00, 10.24,
 0.33,0.21,0.83, -2.21, 6.18, 9.07,
 0.32,0.21,0.85, -2.00, 5.56, 8.41,
 0.33,0.21,0.84, -1.42, 5.25, 6.81,
 0.31,0.21,0.85, -2.11, 6.47, 4.90,
 0.34,0.22,0.84, -0.58, 7.56, 4.98,
 0.35,0.22,0.85, -0.56, 6.85, 5.27,
 0.34,0.23,0.85, -1.42, 6.03, 4.53,
 0.34,0.23,0.87, -2.43, 5.66, 3.89,
 0.37,0.24,0.87, -1.82, 6.72, 6.05,
 0.35,0.23,0.88, -3.22, 5.74, 5.92,
 0.34,0.24,0.87, -3.34, 6.44, 6.08,
 0.35,0.22,0.86, -3.33, 7.01, 6.20,
 0.35,0.21,0.86, -2.63, 7.54, 7.47,
 0.33,0.22,0.87, -3.80, 6.03, 6.96,
 0.36,0.20,0.85, -2.98, 7.02, 6.81,
 0.33,0.20,0.86, -3.07, 6.18, 6.26,
 0.35,0.20,0.85, -2.98, 6.12, 5.63,
 0.33,0.21,0.87, -3.02, 4.58, 4.70,
 0.35,0.21,0.85, -2.31, 4.98, 4.37,
 0.33,0.22,0.90, -3.77, 3.89, 3.63,
 0.34,0.22,0.88, -5.18, 3.22, 2.93,
 0.37,0.22,0.88, -4.58, 4.29, 3.89,
 0.36,0.22,0.87, -5.47, 5.85, 4.23,
 0.35,0.21,0.88, -4.69, 5.40, 4.79,
 0.34,0.21,0.88, -5.18, 5.27, 4.37,
 0.33,0.22,0.89, -6.84, 4.60, 3.48,
 0.32,0.21,0.88, -6.11, 5.63, 3.25,
 0.31,0.21,0.89, -6.20, 5.22, 2.44,
 0.29,0.22,0.89, -6.78, 3.63, 1.53,
 0.29,0.23,0.88, -6.31, 2.60, 1.08,
 0.29,0.22,0.88, -6.38, 0.60, 0.60,
 0.30,0.23,0.88, -5.63, -0.15, 0.23,
 0.31,0.23,0.89, -4.47, 0.47, 2.02,
 0.32,0.24,0.89, -5.08, -0.73, 3.44,
 0.34,0.23,0.87, -4.18, 1.10, 5.36,
 0.32,0.24,0.88, -3.34, 1.13, 5.83,
 0.34,0.24,0.87, -3.37, 1.79, 7.51,
 0.34,0.23,0.87, -2.99, 4.52, 7.37,
 0.35,0.24,0.88, -1.51, 7.16, 10.61,
 0.34,0.23,0.85, -1.45, 7.68, 9.94,
 0.35,0.23,0.87, -1.24, 9.21, 10.08,
 0.35,0.22,0.86, -0.90, 9.92, 9.25,
 0.36,0.22,0.86, 0.35, 11.10, 9.25,
 0.36,0.21,0.86, 0.61, 10.17, 8.49,
 0.38,0.20,0.86, 1.22, 11.36, 8.67,
 0.37,0.21,0.87, 1.40, 11.27, 8.55,
 0.35,0.21,0.86, 0.70, 9.42, 7.47,
 0.36,0.20,0.85, 0.85, 10.78, 6.66,
 0.35,0.21,0.87, 0.81, 10.29, 6.78,
 0.33,0.21,0.86, -0.50, 9.97, 4.89,
 0.34,0.22,0.88, -1.60, 9.95, 3.91,
 0.34,0.22,0.88, -1.98, 10.08, 3.19,
 0.34,0.22,0.88, -2.76, 9.92, 2.47,
 0.34,0.24,0.88, -3.66, 9.54, 3.10,
 0.34,0.23,0.88, -4.05, 8.44, 3.07,
 0.34,0.23,0.88, -3.86, 7.27, 3.18,
 0.34,0.22,0.88, -3.89, 6.55, 3.37,
 0.33,0.23,0.87, -3.30, 6.09, 4.17,
 0.33,0.24,0.87, -2.73, 6.12, 5.30,
 0.32,0.23,0.88, -2.03, 5.92, 5.94,
 0.31,0.23,0.86, -1.95, 5.57, 6.15,
 0.30,0.23,0.87, -1.69, 5.22, 6.37,
 0.30,0.23,0.85, -0.82, 5.69, 7.07,
 0.32,0.23,0.85, -0.50, 6.81, 8.20,
 0.30,0.23,0.86, -1.48, 7.08, 7.63,
 0.31,0.23,0.85, -1.36, 7.53, 7.74,
 0.30,0.23,0.86, -1.16, 6.61, 6.66,
 0.33,0.23,0.85, -0.67, 7.24, 7.47,
 0.35,0.20,0.87, -1.31, 7.05, 6.06,
 0.35,0.23,0.87, -0.60, 7.31, 6.40,
 0.35,0.22,0.87, -1.16, 6.21, 5.85,
 0.35,0.24,0.88, -1.85, 4.09, 5.97,
 0.37,0.23,0.87, -1.69, 6.21, 6.29,
 0.38,0.23,0.87, -1.73, 6.58, 6.23,
 0.36,0.22,0.87, -1.79, 5.56, 6.06,
 0.38,0.22,0.87, -1.53, 6.50, 5.95,
 0.36,0.22,0.88, -1.85, 6.64, 5.62,
 0.35,0.23,0.87, -2.89, 7.15, 4.81,
 0.34,0.22,0.89, -2.73, 6.61, 4.20,
 0.34,0.23,0.88, -3.16, 6.50, 4.61,
 0.32,0.23,0.87, -4.15, 5.73, 4.05,
 0.31,0.24,0.88, -4.82, 4.24, 3.80,
 0.32,0.23,0.87, -4.44, 3.77, 5.27,
 0.31,0.24,0.85, -4.95, 1.01, 5.02,
 0.32,0.23,0.86, -4.89, 0.85, 5.33,
 0.34,0.23,0.86, -3.97, 2.92, 5.68,
 0.33,0.22,0.86, -3.66, 2.69, 5.34,
 0.33,0.21,0.87, -3.10, 3.24, 5.01,
 0.31,0.22,0.86, -3.71, 3.19, 3.92,
 0.31,0.22,0.86, -3.56, 3.71, 4.15,
 0.31,0.23,0.87, -4.24, 3.91, 3.50,
 0.28,0.23,0.89, -4.78, 5.24, 1.11,
 0.29,0.24,0.88, -5.66, 4.35, 2.43,
 0.30,0.22,0.87, -7.34, 4.78, 2.31,
 0.28,0.23,0.87, -8.24, 2.96, 1.94,
 0.32,0.22,0.85, -7.97, 2.53, 3.76,
 0.31,0.21,0.86, -7.66, 0.61, 3.53,
 0.33,0.21,0.85, -6.55, 0.27, 4.02,
 0.32,0.19,0.85, -7.22, -0.63, 3.37,
 0.30,0.20,0.85, -7.08, -2.95, 1.71,
 0.32,0.19,0.85, -5.63, -4.14, 1.53,
 0.31,0.20,0.87, -5.30, -6.14, -0.06,
 0.29,0.20,0.91, -5.59, -10.49, 0.93,
 0.28,0.20,0.88, -4.44, -10.61, -2.26,
 0.28,0.23,0.91, -3.80, -15.22, -12.55,
 0.36,0.25,0.89, -5.19, -8.46, -3.25,
 0.34,0.26,0.92, -6.47, -6.87, 0.15,
 0.32,0.23,0.89, -6.34, -6.05, 0.66,
 0.34,0.23,0.88, -5.54, -4.02, 2.63,
 0.32,0.23,0.88, -6.35, -1.95, 2.96,
 0.33,0.23,0.86, -4.96, 0.08, 3.76,
 0.33,0.23,0.86, -4.60, 1.47, 3.28,
 0.34,0.23,0.86, -3.71, 2.06, 5.33,
 0.34,0.21,0.85, -2.79, 2.44, 8.05,
 0.33,0.22,0.84, -2.44, 1.88, 9.57,
 0.31,0.22,0.85, -2.12, 0.73, 11.25,
 0.34,0.22,0.84, -1.54, 0.90, 13.15,
 0.32,0.22,0.85, -1.34, -0.08, 13.56,
 0.34,0.21,0.84, -0.69, 0.55, 14.32,
 0.32,0.21,0.85, -0.79, -0.14, 13.18,
 0.34,0.22,0.85, 0.14, 0.52, 13.44,
 0.34,0.21,0.85, 1.05, 1.02, 13.16,
 0.35,0.21,0.85, 1.04, 1.40, 11.65,
 0.34,0.23,0.86, 0.67, 0.47, 10.15,
 0.35,0.22,0.86, 0.81, 0.37, 9.44,
 0.37,0.23,0.86, 0.90, 1.18, 9.95,
 0.36,0.22,0.85, 0.50, 0.69, 9.69,
 0.34,0.22,0.86, -0.40, 0.11, 8.87,
 0.34,0.21,0.84, 0.15, -0.17, 7.91,
 0.37,0.21,0.84, 0.15, 0.99, 8.24,
 0.36,0.21,0.86, -1.01, 1.22, 7.77,
 0.37,0.21,0.84, -0.56, 2.09, 8.17,
 0.35,0.21,0.86, -0.44, 1.18, 7.07,
 0.35,0.22,0.86, -1.28, 0.66, 6.24,
 0.36,0.22,0.84, -0.56, 2.02, 6.78,
 0.36,0.21,0.83, 1.92, 2.52, 7.45,
 0.34,0.22,0.84, 2.03, 0.69, 5.79,
 0.37,0.27,0.89, -1.86, -4.52, 8.38,
 0.35,0.23,0.88, -1.57, -3.73, 9.98,
 0.34,0.24,0.87, -1.60, -3.94, 9.59,
 0.35,0.23,0.86, -1.33, -3.68, 10.35,
 0.39,0.23,0.85, 0.49, -3.50, 8.95,
 0.40,0.23,0.88, -1.89, -2.14, 8.70,
 0.36,0.22,0.89, -1.02, -2.50, 8.56,
 0.35,0.20,0.84, -0.08, 0.27, 7.56,
 0.32,0.22,0.91, -2.14, -2.15, 6.99,
 0.37,0.18,0.88, 4.72, 4.41, 9.33,
 0.28,0.22,0.88, -4.03, -4.79, 8.69,
 0.36,0.18,0.88, -1.94, 1.71, 8.31,
 0.36,0.22,0.94, 0.92, -1.28, 10.08,
 0.34,0.22,0.84, 3.53, 1.13, 10.20,
 0.32,0.20,0.85, 7.30, 2.43, 8.55,
 0.31,0.19,0.85, 6.58, 2.52, 6.64,
 0.39,0.24,0.88, 8.29, 3.08, 7.44,
 0.39,0.24,0.88, 6.81, 4.06, 7.51,
 0.33,0.24,0.91, 3.18, 1.57, 8.17,
 0.37,0.21,0.87, 5.02, 1.37, 11.45,
 0.31,0.24,0.89, 3.71, -3.89, 7.80,
 0.35,0.24,0.90, 6.32, -2.37, 8.95,
 0.32,0.20,0.88, 2.53, 0.58, 10.89,
 0.40,0.22,0.87, 2.12, 3.60, 10.95,
 0.35,0.25,0.87, 1.60, 1.80, 9.44,
 0.37,0.22,0.88, 0.29, 1.86, 12.14,
 0.32,0.23,0.86, 1.79, 2.44, 9.02,
 0.37,0.21,0.87, 2.05, 4.44, 10.76,
 0.35,0.23,0.90, 0.24, 6.50, 7.89,
 0.36,0.24,0.88, 0.52, 7.56, 7.30,
 0.40,0.24,0.88, -0.14, 8.69, 7.11,
 0.35,0.24,0.89, -0.84, 7.76, 7.89,
 0.38,0.22,0.87, 0.31, 9.10, 8.63,
 0.40,0.23,0.86, -0.46, 9.74, 8.64,
 0.35,0.22,0.88, -0.15, 6.85, 8.69,
 0.38,0.22,0.86, 0.43, 8.15, 10.53,
 0.33,0.24,0.88, 0.29, 4.32, 10.34,
 0.34,0.23,0.86, 0.27, 4.52, 12.63,
 0.35,0.24,0.86, 1.02, 3.71, 14.92,
 0.34,0.23,0.85, -0.08, 2.06, 12.82,
 0.36,0.22,0.85, 1.97, 3.50, 14.40,
 0.36,0.22,0.87, 0.03, 2.72, 12.55,
 0.33,0.23,0.85, 2.23, 4.73, 11.44,
 0.37,0.23,0.85, 1.95, 6.15, 13.79,
 0.38,0.25,0.86, 1.44, 5.76, 13.74,
 0.36,0.22,0.85, 2.37, 7.51, 12.89,
 0.34,0.22,0.87, 0.92, 6.00, 12.87,
 0.37,0.23,0.87, 0.17, 10.03, 13.01,
 0.35,0.25,0.86, 0.70, 9.53, 12.67,