accl_x,accl_y,accl_z,gyro_x,gyro_y,gyro_z
 0.47,0.17,0.84, -4.69, -0.89, -0.70,
 0.47,0.17,0.84, -4.89, -0.60, -0.72,
 0.47,0.17,0.84, -4.82, -0.34, -0.69,
 0.47,0.17,0.83, -4.64, 0.81, -0.98,
 0.46,0.17,0.84, -4.35, 2.20, -1.30,
 0.46,0.17,0.83, -4.20, 2.84, -1.63,
 0.46,0.18,0.84, -4.09, 2.92, -1.74,
 0.45,0.19,0.84, -3.85, 2.81, -2.06,
 0.44,0.19,0.83, -4.24, 2.81, -1.77,
 0.44,0.18,0.83, -4.43, 2.52, -1.66,
 0.44,0.18,0.83, -4.72, 2.20, -1.62,
 0.44,0.17,0.82, -4.87, 1.88, -1.63,
 0.44,0.17,0.83, -4.95, 1.85, -1.86,
 0.45,0.17,0.81, -4.99, 2.11, -1.74,
 0.45,0.17,0.82, -4.98, 1.98, -2.02,
 0.45,0.17,0.81, -5.02, 1.68, -1.92,
 0.46,0.17,0.82, -5.34, 1.25, -1.97,
 0.48,0.17,0.81, -4.70, 2.06, -0.52,
 0.47,0.18,0.82, -4.49, 1.13, 0.38,
 0.47,0.18,0.83, -4.92, 0.03, -0.18,
 0.46,0.18,0.82, -4.96, -1.01, 0.82,
 0.47,0.18,0.82, -4.89, -1.56, 1.74,
 0.47,0.17,0.82, -4.76, -1.68, 1.40,
 0.46,0.17,0.82, -4.79, -1.94, 0.95,
 0.45,0.18,0.83, -4.58, -1.83, 1.04,
 0.45,0.17,0.81, -4.32, -0.98, 0.46,
 0.46,0.17,0.83, -4.15, -0.06, -0.24,
 0.47,0.17,0.82, -3.69, 0.98, -0.85,
 0.47,0.17,0.82, -3.22, 2.05, -0.53,
 0.48,0.18,0.83, -2.98, 2.76, -0.29,
 0.48,0.18,0.84, -3.05, 2.96, 0.21,
 0.48,0.19,0.84, -3.28, 2.76, 0.60,
 0.47,0.18,0.84, -3.77, 2.18, 0.82,
 0.46,0.17,0.84, -3.88, 1.95, 0.81,
 0.46,0.18,0.84, -4.12, 1.56, 1.01,
 0.45,0.18,0.84, -4.34, 1.40, 0.52,
 0.46,0.17,0.83, -4.66, 1.24, 0.18,
 0.46,0.17,0.83, -4.84, 1.28, 0.41,
 0.47,0.17,0.82, -4.85, 0.93, 1.02,
 0.46,0.16,0.83, -4.96, 0.56, 1.34,
 0.47,0.16,0.82, -4.81, 0.03, 1.85,
 0.47,0.16,0.82, -4.70, -0.03, 1.91,
 0.47,0.17,0.82, -4.09, -0.18, 2.02,
 0.48,0.17,0.82, -3.80, 0.09, 1.89,
 0.48,0.18,0.82, -3.65, 0.02, 1.83,
 0.48,0.18,0.82, -3.74, 0.11, 2.09,
 0.48,0.18,0.84, -3.77, 0.08, 2.00,
 0.47,0.19,0.84, -3.82, -0.03, 2.08,
 0.47,0.19,0.84, -4.06, 0.31, 2.00,
 0.47,0.20,0.84, -4.29, 0.53, 1.95,
 0.46,0.20,0.85, -4.43, 0.79, 2.21,
 0.47,0.20,0.84, -4.89, 0.63, 2.12,
 0.46,0.20,0.84, -4.99, 0.38, 2.38,
 0.45,0.19,0.84, -5.51, 0.61, 1.92,
 0.44,0.19,0.84, -6.15, 0.79, 1.33,
 0.46,0.19,0.83, -6.55, 1.80, 0.58,
 0.47,0.19,0.83, -6.70, 3.56, 0.00,
 0.48,0.19,0.82, -7.63, 5.01, 0.08,
 0.49,0.19,0.82, -7.83, 2.66, 0.18,
 0.50,0.19,0.81, -6.15, 6.92, 0.52,
 0.49,0.18,0.82, -5.98, 5.66, 1.39,
 0.48,0.19,0.82, -6.46, 4.34, 2.69,
 0.48,0.17,0.81, -6.67, 3.56, 3.21,
 0.47,0.17,0.82, -6.61, 2.37, 4.11,
 0.46,0.16,0.81, -7.22, 1.83, 4.63,
 0.46,0.16,0.80, -7.10, 1.11, 5.33,
 0.45,0.15,0.79, -6.46, 0.29, 4.90,
 0.45,0.15,0.79, -5.40, 1.25, 4.29,
 0.46,0.15,0.79, -4.52, 2.12, 3.08,
 0.46,0.15,0.78, -3.71, 3.07, 2.35,
 0.47,0.16,0.79, -3.19, 4.12, 1.94,
 0.48,0.16,0.80, -2.76, 4.98, 2.02,
 0.48,0.17,0.80, -2.41, 5.34, 2.47,
 0.49,0.17,0.82, -2.60, 5.53, 3.11,
 0.49,0.18,0.83, -2.76, 5.60, 4.05,
 0.48,0.18,0.83, -3.59, 4.89, 4.60,
 0.48,0.19,0.84, -4.00, 4.27, 4.95,
 0.47,0.18,0.84, -4.35, 3.86, 5.21,
 0.47,0.18,0.83, -4.70, 3.42, 5.13,
 0.45,0.18,0.84, -4.96, 3.18, 4.89,
 0.46,0.16,0.83, -5.08, 3.79, 4.44,
 0.45,0.16,0.82, -4.73, 3.24, 3.73,
 0.47,0.16,0.81, -4.21, 5.53, 3.45,
 0.47,0.16,0.81, -4.75, 6.27, 3.30,
 0.48,0.17,0.80, -3.92, 6.93, 3.33,
 0.48,0.16,0.79, -3.82, 7.83, 3.53,
 0.49,0.16,0.80, -3.08, 7.51, 3.89,
 0.48,0.17,0.80, -3.27, 7.44, 4.31,
 0.48,0.17,0.80, -3.62, 6.81, 5.15,
 0.48,0.17,0.80, -3.97, 6.38, 5.42,
 0.47,0.17,0.81, -3.86, 5.74, 6.05,
 0.47,0.17,0.81, -4.17, 5.56, 6.26,
 0.47,0.16,0.80, -3.94, 5.21, 6.63,
 0.46,0.14,0.79, -3.42, 5.27, 7.28,
 0.45,0.13,0.79, -2.90, 4.43, 7.86,
 0.44,0.13,0.78, -1.60, 5.08, 7.74,
 0.44,0.13,0.78, -1.39, 5.02, 6.96,
 0.44,0.14,0.79, 0.21, 5.42, 5.88,
 0.45,0.14,0.78, -0.43, 6.14, 5.47,
 0.47,0.14,0.80, 0.05, 7.02, 5.39,
 0.47,0.14,0.79, 0.17, 7.94, 5.97,
 0.48,0.15,0.79, 0.85, 8.17, 6.56,
 0.48,0.16,0.81, 1.95, 7.18, 7.48,
 0.48,0.16,0.81, 2.24, 5.86, 8.43,
 0.47,0.17,0.84, 2.87, 4.67, 9.33,
 0.47,0.17,0.84, 2.58, 3.97, 9.59,
 0.46,0.16,0.83, 2.37, 3.50, 10.20,
 0.46,0.17,0.85, 1.88, 3.48, 10.55,
 0.44,0.16,0.85, 1.50, 2.76, 10.32,
 0.45,0.16,0.86, 1.69, 3.48, 10.40,
 0.45,0.16,0.84, 0.87, 4.70, 9.65,
 0.45,0.17,0.84, 1.54, 5.36, 9.68,
 0.45,0.16,0.84, 0.32, 5.44, 10.02,
 0.45,0.16,0.83, 0.63, 7.15, 9.89,
 0.45,0.16,0.80, -0.03, 8.85, 10.06,
 0.47,0.18,0.83, 0.87, 6.99, 10.27,
 0.46,0.15,0.84, 1.22, 10.79, 10.66,
 0.45,0.18,0.84, 3.13, 10.00, 9.91,
 0.45,0.17,0.85, 2.32, 8.06, 10.49,
 0.46,0.16,0.84, 1.63, 8.56, 11.05,
 0.45,0.17,0.85, 0.98, 7.39, 11.71,
 0.44,0.17,0.85, 0.87, 5.73, 11.79,
 0.44,0.17,0.86, 0.43, 5.54, 12.06,
 0.44,0.16,0.85, 0.00, 5.74, 12.46,
 0.43,0.16,0.85, -0.21, 6.23, 12.18,
 0.43,0.16,0.84, 0.14, 6.50, 11.50,
 0.43,0.16,0.84, 0.15, 7.10, 11.22,
 0.43,0.16,0.85, -0.46, 7.25, 10.84,
 0.44,0.16,0.84, -0.50, 8.43, 10.93,
 0.44,0.16,0.84, -1.47, 8.15, 11.45,
 0.44,0.17,0.84, -1.57, 8.03, 11.66,
 0.45,0.16,0.84, -2.23, 7.71, 11.51,
 0.45,0.16,0.84, -1.86, 7.80, 10.92,
 0.46,0.16,0.85, -1.86, 8.82, 10.89,
 0.47,0.17,0.85, -1.19, 9.27, 11.39,
 0.47,0.17,0.85, -1.21, 9.80, 12.06,
 0.46,0.17,0.85, -0.47, 9.28, 12.87,
 0.45,0.18,0.85, -0.29, 7.88, 13.79,
 0.44,0.17,0.84, -0.38, 7.79, 14.40,
 0.43,0.18,0.85, -0.15, 7.40, 14.21,
 0.42,0.18,0.84, 0.29, 6.98, 13.66,
 0.41,0.17,0.84, 0.11, 7.82, 12.75,
 0.42,0.18,0.82, -0.44, 10.05, 11.25,
 0.41,0.18,0.84, 0.63, 8.18, 10.93,
 0.44,0.19,0.85, 0.32, 9.10, 10.73,
 0.44,0.18,0.85, -0.85, 9.79, 10.60,
 0.44,0.18,0.83, -1.01, 11.36, 10.66,
 0.44,0.17,0.84, -1.22, 10.98, 11.27,
 0.44,0.17,0.83, -0.47, 10.18, 11.21,
 0.43,0.16,0.82, 0.06, 10.03, 11.28,
 0.43,0.16,0.82, 0.85, 10.14, 11.16,
 0.41,0.17,0.80, 1.68, 10.05, 11.22,
 0.41,0.16,0.81, 2.06, 9.44, 10.67,
 0.41,0.16,0.80, 2.03, 8.58, 9.30,
 0.40,0.17,0.83, 1.47, 6.26, 5.30,
 0.41,0.17,0.83, -0.12, 4.82, 1.63,
 0.44,0.17,0.81, -0.53, 5.85, 2.82,
 0.46,0.16,0.80, 2.09, 9.21, 6.56,
 0.49,0.16,0.81, 2.55, 12.98, 10.34,
 0.46,0.17,0.85, 2.73, 13.10, 11.28,
 0.45,0.17,0.86, 2.75, 11.33, 12.20,
 0.44,0.16,0.84, 2.56, 10.93, 13.82,
 0.43,0.15,0.83, 2.99, 11.21, 14.70,
 0.41,0.16,0.84, 4.27, 9.59, 14.50,
 0.40,0.16,0.85, 4.95, 8.03, 14.14,
 0.39,0.16,0.84, 5.07, 7.44, 13.68,
 0.39,0.17,0.84, 5.25, 7.94, 12.61,
 0.39,0.16,0.85, 4.72, 9.24, 11.69,
 0.40,0.16,0.85, 4.47, 10.37, 10.63,
 0.41,0.17,0.86, 4.08, 11.60, 10.05,
 0.41,0.17,0.86, 3.01, 12.18, 10.41,
 0.42,0.17,0.86, 1.95, 12.81, 10.55,
 0.43,0.18,0.87, 1.97, 12.84, 10.75,
 0.43,0.17,0.86, 2.35, 15.08, 11.21,
 0.43,0.18,0.87, 3.30, 16.23, 11.62,
 0.42,0.18,0.88, 3.27, 15.94, 12.49,
 0.41,0.18,0.86, 2.98, 15.13, 13.01,
 0.40,0.18,0.86, 2.55, 13.18, 13.65,
 0.39,0.18,0.87, 2.14, 11.19, 14.17,
 0.38,0.18,0.87, 1.47, 8.98, 14.70,
 0.38,0.18,0.86, 0.99, 7.13, 14.69,
 0.38,0.18,0.87, 0.53, 6.38, 14.00,
 0.38,0.18,0.87, 0.24, 6.50, 12.96,
 0.39,0.18,0.88, -0.15, 7.79, 12.11,
 0.40,0.18,0.87, -0.15, 9.31, 11.47,
 0.41,0.18,0.87, -0.75, 9.94, 10.99,
 0.41,0.19,0.88, -2.03, 10.35, 10.99,
 0.42,0.18,0.87, -1.71, 11.85, 10.92,
 0.41,0.18,0.87, -1.27, 11.71, 10.84,
 0.41,0.18,0.86, -0.93, 11.94, 11.45,
 0.40,0.18,0.87, -0.40, 12.84, 11.42,
 0.39,0.18,0.87, -0.23, 11.53, 11.42,
 0.39,0.17,0.86, -0.79, 10.56, 11.15,
 0.38,0.17,0.87, -1.18, 8.93, 11.11,
 0.36,0.17,0.86, -3.47, 5.01, 10.21,
 0.36,0.16,0.88, -4.46, 3.92, 7.56,
 0.39,0.16,0.84, -4.56, 5.76, 6.20,
 0.42,0.16,0.86, -4.98, 5.44, 7.08,
 0.43,0.16,0.84, -4.17, 5.98, 7.74,
 0.44,0.16,0.83, -3.21, 4.90, 8.72,
 0.44,0.16,0.84, -2.35, 5.18, 8.96,
 0.43,0.16,0.82, -1.56, 5.80, 9.27,
 0.42,0.16,0.82, -0.95, 6.69, 10.66,
 0.41,0.16,0.82, -0.27, 7.86, 12.55,
 0.41,0.16,0.82, 0.12, 8.82, 14.47,
 0.39,0.16,0.83, 0.67, 8.87, 14.15,
 0.38,0.17,0.83, 0.64, 8.81, 12.98,
 0.38,0.17,0.84, 0.24, 8.76, 12.29,
 0.39,0.17,0.83, -0.06, 8.69, 12.32,
 0.40,0.17,0.85, -0.21, 8.23, 12.18,
 0.40,0.17,0.85, -0.29, 7.79, 12.14,
 0.39,0.17,0.85, -0.31, 6.27, 12.49,
 0.39,0.16,0.83, -0.92, 5.94, 11.77,
 0.39,0.17,0.84, -0.47, 5.56, 11.53,
 0.40,0.16,0.84, -0.18, 4.66, 12.70,
 0.40,0.17,0.85, -0.41, 4.50, 13.10,
 0.40,0.15,0.83, 0.17, 4.67, 13.45,
 0.40,0.16,0.84, 0.55, 3.89, 14.41,
 0.39,0.16,0.83, 0.64, 3.83, 14.96,
 0.38,0.14,0.83, 1.22, 3.33, 15.50,
 0.38,0.15,0.82, 1.60, 3.30, 15.30,
 0.38,0.15,0.81, 1.86, 4.14, 14.40,
 0.38,0.16,0.83, 2.78, 4.14, 13.63,
 0.38,0.16,0.82, 2.87, 4.03, 13.05,
 0.38,0.16,0.83, 3.56, 2.60, 12.73,
 0.38,0.17,0.83, 4.35, -1.21, 12.17,
 0.41,0.16,0.85, 4.52, -3.19, 10.27,
 0.42,0.17,0.85, 3.92, -0.76, 12.05,
 0.43,0.17,0.88, 2.17, 1.94, 14.02,
 0.42,0.17,0.87, 2.18, 3.22, 14.49,
 0.41,0.17,0.85, 2.50, 3.30, 14.69,
 0.40,0.17,0.86, 2.90, 3.68, 14.64,
 0.41,0.17,0.87, 2.90, 3.69, 14.87,
 0.39,0.17,0.86, 2.43, 3.65, 14.96,
 0.39,0.17,0.86, 2.24, 4.67, 14.56,
 0.39,0.16,0.86, 2.35, 4.87, 13.80,
 0.40,0.17,0.85, 2.50, 5.74, 13.37,
 0.38,0.17,0.86, 1.47, 4.20, 13.27,
 0.39,0.17,0.83, 2.37, 6.18, 12.53,
 0.39,0.17,0.84, 2.79, 6.43, 11.97,
 0.40,0.17,0.84, 3.69, 5.08, 12.49,
 0.40,0.17,0.85, 3.25, 4.03, 12.64,
 0.40,0.18,0.85, 3.47, 3.60, 12.82,
 0.39,0.18,0.86, 3.27, 3.02, 12.72,
 0.39,0.18,0.86, 3.27, 3.50, 12.56,
 0.39,0.18,0.87, 2.66, 4.29, 11.95,
 0.40,0.18,0.87, 1.95, 5.94, 11.48,
 0.40,0.18,0.87, 1.13, 8.02, 10.64,
 0.41,0.18,0.88, 0.50, 9.97, 10.32,
 0.41,0.17,0.88, 0.40, 11.88, 10.67,
 0.42,0.17,0.87, 0.70, 13.97, 11.08,
 0.42,0.17,0.86, 0.85, 15.57, 11.44,
 0.41,0.17,0.85, 1.65, 16.78, 12.05,
 0.41,0.17,0.84, 2.24, 17.48, 13.02,
 0.42,0.16,0.84, 2.61, 17.27, 13.82,
 0.40,0.16,0.84, 2.70, 17.19, 14.95,
 0.40,0.16,0.85, 3.10, 14.55, 15.45,
 0.39,0.17,0.85, 3.80, 15.47, 15.47,
 0.38,0.16,0.85, 4.99, 15.77, 15.02,
 0.39,0.16,0.87, 4.09, 14.67, 15.19,
 0.39,0.16,0.88, 3.45, 14.85, 14.85,
 0.38,0.17,0.88, 3.45, 14.85, 14.75,
 0.38,0.16,0.88, 2.75, 14.44, 13.36,
 0.37,0.16,0.88, 2.60, 16.32, 12.11,
 0.39,0.16,0.88, 2.72, 17.33, 11.92,
 0.39,0.16,0.89, 2.49, 17.65, 12.09,
 0.39,0.16,0.89, 2.69, 18.93, 11.92,
 0.39,0.16,0.88, 2.61, 20.06, 12.12,
 0.38,0.17,0.87, 2.82, 20.78, 11.57,
 0.37,0.17,0.87, 3.21, 20.89, 13.04,
 0.38,0.18,0.87, 1.98, 19.56, 14.02,
 0.37,0.16,0.86, 3.18, 19.66, 14.09,
 0.35,0.17,0.85, 4.11, 16.60, 14.29,
 0.35,0.17,0.86, 4.03, 13.98, 14.60,
 0.36,0.18,0.88, 3.92, 13.25, 14.29,
 0.36,0.18,0.87, 3.83, 13.97, 13.91,
 0.35,0.19,0.87, 3.24, 13.94, 14.11,
 0.34,0.19,0.87, 2.99, 13.40, 13.73,
 0.33,0.19,0.87, 2.56, 12.38, 13.24,
 0.34,0.18,0.88, 2.37, 12.29, 11.95,
 0.35,0.19,0.88, 2.26, 12.82, 10.75,
 0.35,0.20,0.88, 1.53, 12.70, 10.32,
 0.36,0.20,0.88, 0.95, 13.27, 9.62,
 0.36,0.20,0.90, 1.34, 14.47, 8.81,
 0.36,0.20,0.88, 0.78, 14.95, 9.15,
 0.36,0.19,0.88, 0.27, 15.57, 9.24,
 0.34,0.20,0.88, 0.23, 13.16, 8.87,
 0.34,0.19,0.86, -0.32, 11.08, 9.21,
 0.33,0.19,0.86, -0.50, 10.26, 9.74,
 0.33,0.19,0.87, -0.90, 8.96, 10.05,
 0.32,0.19,0.85, -1.28, 7.33, 10.02,
 0.33,0.18,0.85, -1.48, 7.36, 8.96,
 0.33,0.18,0.85, -1.02, 7.77, 8.41,
 0.34,0.18,0.84, -0.55, 7.11, 8.24,
 0.35,0.17,0.84, -0.05, 6.17, 8.37,
 0.37,0.17,0.84, 0.26, 5.18, 8.58,
 0.37,0.17,0.84, 0.76, 5.33, 8.73,
 0.37,0.17,0.85, 1.50, 7.45, 9.16,
 0.37,0.18,0.84, 1.04, 8.58, 10.37,
 0.36,0.17,0.84, 1.86, 9.04, 11.25,
 0.34,0.17,0.82, 3.51, 7.45, 11.21,
 0.33,0.17,0.82, 5.01, 5.51, 11.24,
 0.32,0.18,0.83, 5.88, 3.25, 11.34,
 0.32,0.18,0.85, 5.79, 1.92, 11.15,
 0.32,0.18,0.85, 5.74, 2.41, 10.08,
 0.33,0.19,0.86, 5.82, 2.81, 9.47,
 0.33,0.20,0.84, 5.82, 4.03, 8.85,
 0.34,0.20,0.85, 5.86, 5.27, 8.64,
 0.34,0.20,0.86, 5.44, 4.81, 8.79,
 0.35,0.20,0.86, 4.69, 4.49, 8.56,
 0.37,0.21,0.88, 4.55, 6.08, 8.58,
 0.36,0.21,0.86, 3.54, 6.70, 9.51,
 0.37,0.20,0.86, 3.34, 8.53, 9.89,
 0.35,0.20,0.85, 4.24, 9.34, 10.05,
 0.35,0.20,0.85, 5.13, 9.48, 10.41,
 0.34,0.20,0.85, 5.91, 9.94, 10.79,
 0.34,0.20,0.85, 6.50, 9.95, 11.37,
 0.33,0.19,0.84, 5.80, 10.18, 11.76,
 0.32,0.19,0.85, 6.79, 8.66, 10.75,
 0.32,0.20,0.86, 7.13, 9.08, 10.06,
 0.32,0.20,0.86, 6.11, 9.07, 9.57,
 0.33,0.20,0.88, 5.82, 9.86, 8.44,
 0.33,0.20,0.89, 4.76, 10.60, 7.05,
 0.34,0.21,0.90, 3.85, 12.14, 7.01,
 0.35,0.21,0.91, 1.83, 13.53, 7.11,
 0.35,0.20,0.90, 1.57, 14.69, 6.72,
 0.35,0.20,0.89, 2.02, 14.56, 7.01,
 0.35,0.19,0.89, 1.82, 13.91, 8.05,
 0.34,0.19,0.89, 1.62, 12.72, 9.19,
 0.34,0.19,0.88, 1.44, 12.21, 10.15,
 0.33,0.19,0.88, 1.89, 12.32, 10.87,
 0.33,0.18,0.88, 2.15, 12.79, 11.13,
 0.32,0.19,0.86, 2.72, 13.30, 11.18,
 0.32,0.19,0.86, 3.24, 13.48, 11.44,
 0.32,0.18,0.85, 3.60, 13.05, 11.05,
 0.31,0.19,0.85, 3.88, 12.55, 10.82,
 0.31,0.19,0.87, 4.66, 12.29, 11.01,
 0.30,0.19,0.88, 4.23, 10.99, 11.73,
 0.29,0.19,0.89, 4.03, 9.59, 11.85,
 0.28,0.19,0.90, 4.14, 7.47, 11.31,
 0.27,0.20,0.92, 3.42, 5.62, 10.69,
 0.27,0.22,0.92, 1.86, 4.61, 9.69,
 0.27,0.23,0.94, 0.35, 4.05, 8.05,
 0.27,0.23,0.93, -1.11, 4.50, 5.57,
 0.27,0.24,0.93, -1.83, 5.42, 3.86,
 0.28,0.24,0.92, -3.50, 5.89, 2.87,
 0.29,0.24,0.91, -3.56, 6.26, 1.74,
 0.29,0.23,0.90, -3.25, 5.73, 1.16,
 0.30,0.22,0.89, -3.28, 5.36, 0.63,
 0.31,0.22,0.88, -2.66, 7.19, 1.59,
 0.33,0.20,0.89, -3.44, 5.53, 3.04,
 0.32,0.20,0.87, -3.62, 6.47, 4.55,
 0.31,0.20,0.88, -3.02, 6.64, 5.56,
 0.30,0.19,0.85, -2.69, 6.05, 6.40,
 0.29,0.20,0.86, -2.44, 5.95, 6.50,
 0.29,0.21,0.85, -1.77, 6.05, 6.32,
 0.29,0.21,0.85, -1.34, 5.69, 5.51,
 0.30,0.22,0.85, -0.55, 6.75, 3.94,
 0.30,0.23,0.84, -0.26, 8.06, 2.63,
 0.31,0.22,0.86, -0.41, 5.80, 1.74,
 0.33,0.22,0.89, -0.24, 7.97, 1.47,
 0.34,0.22,0.87, -0.90, 9.36, 1.60,
 0.35,0.22,0.88, -0.89, 10.92, 2.09,
 0.35,0.21,0.87, -0.46, 12.98, 3.11,
 0.33,0.20,0.88, -0.06, 10.79, 3.98,
 0.34,0.20,0.87, 0.46, 10.35, 5.36,
 0.33,0.20,0.87, 0.87, 10.96, 6.50,
 0.33,0.21,0.86, 0.96, 10.98, 7.69,
 0.32,0.22,0.86, 0.92, 11.31, 9.33,
 0.30,0.22,0.86, 1.62, 11.01, 9.77,
 0.30,0.23,0.86, 2.40, 9.85, 9.01,
 0.31,0.24,0.85, 3.27, 10.06, 8.20,
 0.32,0.24,0.85, 3.66, 10.99, 7.40,
 0.33,0.25,0.87, 4.20, 11.82, 6.46,
 0.32,0.25,0.87, 4.40, 13.33, 4.46,
 0.32,0.25,0.89, 4.23, 14.99, 3.08,
 0.33,0.27,0.89, 2.53, 16.96, 3.02,
 0.31,0.27,0.90, 2.14, 18.87, 2.26,
 0.30,0.26,0.90, 1.53, 19.94, 1.10,
 0.29,0.26,0.90, 0.27, 21.74, 0.02,
 0.29,0.26,0.90, -0.81, 23.53, -0.60,
 0.28,0.26,0.90, -1.22, 24.79, -0.99,
 0.27,0.25,0.88, -1.24, 24.93, -0.90,
 0.27,0.24,0.89, -1.44, 24.00, -0.70,
 0.27,0.23,0.88, -1.74, 22.75, -1.25,
 0.25,0.24,0.90, -4.93, 18.20, -5.24,
 0.24,0.23,0.91, -6.52, 12.58, -7.98,
 0.30,0.22,0.84, -5.28, 14.87, -3.83,
 0.32,0.22,0.84, -2.52, 20.35, 1.21,
 0.30,0.22,0.86, -0.23, 22.18, 3.25,
 0.25,0.24,0.88, 0.18, 19.28, 3.50,
 0.24,0.24,0.86, 0.26, 17.76, 2.60,
 0.25,0.23,0.86, 0.78, 17.28, 2.73,
 0.24,0.24,0.88, 0.82, 16.76, 2.50,
 0.19,0.23,0.90, -0.49, 12.56, -1.50,
 0.19,0.24,0.88, 0.06, 11.57, -1.57,
 0.20,0.23,0.87, 0.38, 14.23, -0.09,
 0.21,0.25,0.91, 0.55, 15.94, 0.17,
 0.19,0.24,0.92, -0.63, 15.21, -0.76,
 0.17,0.25,0.93, -2.37, 12.81, -1.73,