accl_x,accl_y,accl_z,gyro_x,gyro_y,gyro_z
 0.51,0.19,0.80, -2.99, 2.82, -0.46,
 0.50,0.19,0.81, -2.99, 3.16, -0.41,
 0.50,0.19,0.81, -3.13, 3.44, -0.49,
 0.49,0.19,0.80, -3.63, 3.89, -0.73,
 0.51,0.19,0.80, -4.12, 4.27, -0.87,
 0.51,0.19,0.80, -4.27, 4.15, -0.96,
 0.44,0.19,0.87, -7.92, -3.89, -4.15,
 0.52,0.18,0.78, -6.18, -0.70, -3.62,
 0.54,0.18,0.76, -6.08, 5.59, -0.32,
 0.52,0.18,0.81, -4.24, 4.35, -0.69,
 0.50,0.18,0.78, -3.45, 2.89, -1.22,
 0.49,0.19,0.79, -3.83, 3.27, -1.63,
 0.50,0.19,0.80, -4.06, 2.82, -1.59,
 0.50,0.19,0.79, -4.02, 2.18, -1.24,
 0.49,0.19,0.80, -4.11, 2.09, -1.68,
 0.49,0.19,0.79, -4.70, 2.52, -1.73,
 0.51,0.18,0.80, -5.48, 3.37, -1.69,
 0.51,0.18,0.78, -5.57, 3.37, -1.66,
 0.50,0.19,0.80, -5.39, 2.79, -1.86,
 0.50,0.18,0.79, -5.25, 2.03, -2.27,
 0.50,0.18,0.79, -5.36, 1.62, -2.26,
 0.50,0.19,0.79, -5.39, 1.22, -2.12,
 0.50,0.19,0.80, -5.39, 0.89, -1.92,
 0.49,0.19,0.80, -5.53, 0.89, -1.69,
 0.49,0.19,0.79, -5.53, 0.56, -1.48,
 0.51,0.19,0.80, -5.60, 0.72, -0.41,
 0.52,0.20,0.82, -5.73, -1.69, 1.73,
 0.49,0.20,0.80, -4.40, 0.49, 0.12,
 0.49,0.19,0.79, -5.62, 0.02, 1.10,
 0.52,0.19,0.81, -5.24, 1.02, -0.26,
 0.51,0.18,0.80, -4.90, 1.47, -0.38,
 0.51,0.18,0.81, -4.95, 2.67, -0.09,
 0.51,0.18,0.80, -4.63, 3.15, -0.89,
 0.51,0.18,0.80, -4.41, 2.93, -0.20,
 0.51,0.18,0.80, -3.74, 3.05, -0.43,
 0.50,0.18,0.80, -3.16, 2.47, -0.64,
 0.49,0.18,0.81, -3.76, 2.67, -0.21,
 0.50,0.18,0.81, -4.05, 3.10, -0.40,
 0.50,0.18,0.82, -4.67, 3.01, -0.41,
 0.49,0.18,0.81, -4.89, 3.11, -0.72,
 0.50,0.19,0.81, -4.98, 3.36, -0.75,
 0.50,0.19,0.81, -5.30, 3.50, -1.05,
 0.50,0.19,0.80, -5.10, 3.80, -1.19,
 0.51,0.18,0.81, -5.30, 3.92, -1.30,
 0.52,0.19,0.80, -5.30, 4.58, -1.33,
 0.51,0.19,0.80, -5.40, 4.43, -1.18,
 0.52,0.20,0.80, -5.68, 4.20, -0.96,
 0.52,0.20,0.80, -5.74, 3.95, -0.46,
 0.53,0.20,0.80, -6.09, 3.22, 0.23,
 0.52,0.20,0.80, -6.18, 2.76, 0.26,
 0.52,0.19,0.80, -6.55, 2.24, 0.76,
 0.52,0.19,0.79, -6.52, 2.09, 0.82,
 0.52,0.19,0.78, -6.40, 1.71, 1.08,
 0.52,0.19,0.78, -6.09, 1.76, 0.60,
 0.52,0.19,0.78, -6.11, 1.31, 0.67,
 0.52,0.18,0.79, -5.65, 1.71, 0.75,
 0.53,0.18,0.78, -5.18, 1.86, 0.50,
 0.52,0.18,0.77, -4.75, 2.34, 0.73,
 0.52,0.19,0.76, -4.49, 2.82, 0.26,
 0.52,0.18,0.77, -4.21, 3.34, 0.17,
 0.51,0.19,0.78, -3.63, 3.51, 0.20,
 0.52,0.18,0.78, -3.56, 3.59, 0.02,
 0.48,0.19,0.79, -3.30, 2.58, -3.22,
 0.51,0.20,0.76, -3.79, 3.19, -1.19,
 0.52,0.20,0.78, -4.05, 3.94, -0.06,
 0.53,0.20,0.78, -3.27, 4.56, 0.81,
 0.52,0.20,0.79, -3.33, 4.47, 2.40,
 0.52,0.20,0.78, -3.22, 3.85, 3.33,
 0.52,0.20,0.77, -2.53, 3.39, 4.56,
 0.53,0.20,0.77, -1.85, 3.36, 6.00,
 0.53,0.18,0.77, -1.04, 3.66, 6.85,
 0.51,0.20,0.79, -0.75, 2.46, 6.02,
 0.51,0.19,0.78, -0.58, 2.44, 6.70,
 0.51,0.20,0.80, -0.44, 2.63, 6.99,
 0.51,0.20,0.81, -0.11, 2.40, 7.30,
 0.51,0.20,0.81, -0.52, 2.43, 6.87,
 0.51,0.20,0.82, -0.76, 2.81, 6.24,
 0.52,0.19,0.82, -1.16, 3.45, 5.94,
 0.51,0.19,0.82, -1.21, 4.46, 5.42,
 0.51,0.17,0.82, -0.60, 4.78, 5.62,
 0.52,0.18,0.81, -1.05, 5.94, 5.63,
 0.51,0.18,0.82, -1.74, 6.56, 5.71,
 0.51,0.18,0.82, 0.03, 7.18, 5.66,
 0.52,0.18,0.82, -1.62, 7.18, 6.27,
 0.51,0.18,0.82, -0.66, 6.37, 6.46,
 0.51,0.18,0.82, -0.90, 5.73, 7.16,
 0.51,0.18,0.81, -1.15, 6.31, 7.31,
 0.51,0.18,0.81, -1.62, 5.68, 7.50,
 0.50,0.18,0.81, -1.60, 5.33, 7.51,
 0.49,0.19,0.82, -1.77, 4.66, 7.27,
 0.48,0.18,0.81, -1.89, 4.29, 7.33,
 0.49,0.19,0.81, -2.15, 4.49, 6.93,
 0.49,0.19,0.81, -2.31, 4.64, 6.93,
 0.49,0.19,0.80, -2.00, 4.66, 6.87,
 0.49,0.19,0.80, -1.77, 4.78, 7.28,
 0.49,0.19,0.81, -1.66, 4.47, 7.34,
 0.49,0.18,0.79, -1.48, 4.17, 7.54,
 0.49,0.18,0.80, -1.13, 4.53, 7.57,
 0.48,0.18,0.81, -1.10, 3.69, 6.84,
 0.48,0.18,0.79, -1.30, 3.80, 6.72,
 0.48,0.18,0.82, -1.69, 4.05, 6.20,
 0.48,0.18,0.81, -1.80, 4.29, 6.08,
 0.48,0.19,0.82, -2.31, 4.14, 6.27,
 0.49,0.19,0.81, -2.29, 4.03, 6.00,
 0.48,0.18,0.82, -2.55, 4.14, 6.14,
 0.48,0.19,0.81, -2.55, 3.92, 6.58,
 0.49,0.20,0.81, -2.70, 3.63, 6.69,
 0.49,0.19,0.81, -2.95, 3.30, 7.02,
 0.49,0.19,0.80, -3.24, 3.22, 7.39,
 0.48,0.19,0.81, -3.25, 2.93, 7.74,
 0.48,0.19,0.80, -3.65, 2.82, 8.05,
 0.48,0.19,0.81, -3.85, 1.13, 8.17,
 0.48,0.19,0.80, -2.96, 2.17, 7.62,
 0.48,0.19,0.81, -2.99, 2.14, 7.30,
 0.48,0.19,0.81, -2.53, 2.46, 6.05,
 0.47,0.18,0.80, -3.11, 3.25, 5.80,
 0.47,0.19,0.80, -2.76, 3.48, 5.44,
 0.48,0.19,0.80, -2.53, 4.27, 5.13,
 0.48,0.19,0.80, -2.37, 5.24, 4.60,
 0.48,0.19,0.80, -2.41, 5.74, 4.23,
 0.48,0.19,0.81, -2.35, 5.62, 4.05,
 0.48,0.19,0.81, -2.37, 5.37, 4.15,
 0.48,0.19,0.81, -2.90, 5.31, 4.20,
 0.49,0.18,0.80, -3.11, 4.93, 4.29,
 0.48,0.18,0.80, -3.30, 4.56, 4.32,
 0.49,0.19,0.80, -3.69, 3.59, 4.43,
 0.48,0.18,0.80, -3.89, 2.99, 4.52,
 0.48,0.18,0.81, -3.47, 2.53, 5.15,
 0.47,0.18,0.80, -3.63, 2.06, 5.83,
 0.48,0.17,0.80, -3.34, 0.93, 5.91,
 0.47,0.17,0.80, -3.28, 2.50, 5.60,
 0.47,0.16,0.80, -1.74, 2.67, 5.51,
 0.46,0.16,0.80, -2.14, 2.96, 5.25,
 0.45,0.16,0.81, -1.30, 3.66, 4.40,
 0.46,0.16,0.80, -0.98, 4.50, 3.44,
 0.46,0.16,0.80, -1.08, 5.37, 2.95,
 0.48,0.16,0.81, -1.10, 5.89, 2.21,
 0.48,0.16,0.80, -1.10, 6.14, 1.60,
 0.48,0.16,0.81, -0.92, 7.48, 1.50,
 0.49,0.16,0.80, -0.41, 7.47, 1.71,
 0.50,0.16,0.81, -0.73, 7.40, 2.21,
 0.50,0.16,0.80, -0.67, 7.33, 2.85,
 0.50,0.16,0.81, -0.89, 6.98, 3.92,
 0.49,0.16,0.81, -0.87, 5.95, 4.70,
 0.49,0.16,0.81, -0.79, 5.28, 5.45,
 0.48,0.17,0.81, -0.73, 4.58, 6.02,
 0.47,0.16,0.81, -0.67, 3.19, 6.37,
 0.48,0.16,0.80, -0.20, 3.76, 6.23,
 0.48,0.16,0.80, -0.08, 4.53, 6.21,
 0.48,0.17,0.81, 0.11, 4.81, 5.66,
 0.48,0.17,0.81, -0.21, 5.63, 4.73,
 0.49,0.17,0.81, -0.02, 6.58, 4.15,
 0.50,0.17,0.81, -0.12, 8.46, 3.98,
 0.50,0.18,0.81, 0.08, 9.05, 4.12,
 0.51,0.17,0.81, 0.72, 9.39, 4.40,
 0.51,0.17,0.82, 0.93, 9.27, 4.72,
 0.51,0.18,0.82, 0.90, 9.13, 5.53,
 0.51,0.18,0.82, 0.60, 8.67, 6.05,
 0.50,0.18,0.82, 0.17, 8.11, 6.92,
 0.50,0.17,0.82, -0.49, 7.21, 7.50,
 0.49,0.18,0.81, -0.87, 5.80, 7.50,
 0.49,0.18,0.80, -1.05, 6.63, 6.89,
 0.50,0.18,0.80, -0.37, 6.50, 6.90,
 0.49,0.18,0.80, -0.73, 6.76, 6.87,
 0.50,0.19,0.80, -0.34, 7.02, 6.76,
 0.49,0.19,0.80, 0.27, 7.25, 6.93,
 0.49,0.18,0.80, 0.21, 7.42, 7.34,
 0.48,0.19,0.80, 0.29, 7.19, 7.60,
 0.47,0.18,0.80, 0.35, 6.82, 7.76,
 0.47,0.19,0.81, 0.37, 6.63, 7.82,
 0.46,0.18,0.80, 0.20, 6.29, 7.50,
 0.45,0.19,0.79, 0.34, 5.88, 7.45,
 0.45,0.18,0.80, 0.49, 5.25, 6.82,
 0.45,0.19,0.80, 0.17, 5.36, 6.21,
 0.45,0.19,0.80, 0.23, 5.05, 5.68,
 0.46,0.19,0.80, 0.21, 4.98, 5.02,
 0.46,0.21,0.80, -0.02, 4.66, 5.15,
 0.47,0.20,0.80, 0.32, 4.11, 4.95,
 0.48,0.21,0.81, 0.52, 3.57, 5.57,
 0.47,0.21,0.80, 0.55, 3.22, 6.08,
 0.47,0.21,0.82, 0.69, 2.58, 6.76,
 0.47,0.21,0.82, 0.56, 2.05, 6.93,
 0.46,0.22,0.82, -0.03, 2.09, 6.92,
 0.46,0.22,0.84, -0.41, 2.21, 6.73,
 0.46,0.22,0.84, -1.08, 2.49, 5.89,
 0.45,0.22,0.83, -1.51, 3.45, 5.30,
 0.45,0.22,0.82, -1.65, 4.03, 4.24,
 0.46,0.22,0.82, -1.39, 4.78, 3.79,
 0.48,0.21,0.82, -1.51, 5.47, 3.25,
 0.49,0.20,0.81, -1.76, 6.55, 3.40,
 0.49,0.19,0.82, -1.88, 7.37, 4.05,
 0.50,0.18,0.81, -1.89, 7.74, 4.90,
 0.49,0.19,0.82, -1.71, 7.71, 5.60,
 0.50,0.18,0.82, -2.00, 7.66, 6.32,
 0.49,0.18,0.82, -1.80, 7.53, 6.76,
 0.49,0.17,0.82, -1.60, 7.66, 7.02,
 0.49,0.17,0.81, -1.31, 7.28, 7.27,
 0.50,0.18,0.80, -1.05, 7.16, 7.07,
 0.49,0.17,0.80, -0.89, 7.34, 7.11,
 0.50,0.17,0.81, -1.02, 7.15, 7.83,
 0.49,0.17,0.80, -1.47, 6.70, 8.14,
 0.49,0.18,0.81, -1.76, 6.98, 7.65,
 0.50,0.18,0.81, -1.79, 6.98, 7.80,
 0.50,0.18,0.81, -1.89, 7.24, 7.86,
 0.49,0.18,0.83, -2.05, 6.72, 7.83,
 0.49,0.18,0.82, -2.81, 7.28, 7.05,
 0.49,0.17,0.83, -2.75, 7.95, 7.44,
 0.49,0.17,0.83, -2.14, 8.40, 7.98,
 0.48,0.16,0.83, -1.76, 8.11, 8.64,
 0.47,0.17,0.83, -1.19, 7.69, 9.02,
 0.48,0.17,0.83, -0.72, 7.51, 8.93,
 0.47,0.17,0.82, 0.11, 6.89, 8.53,
 0.43,0.18,0.82, 2.58, 1.24, 8.67,
 0.47,0.14,0.84, 6.43, -0.70, 5.05,
 0.45,0.18,0.82, 2.69, 3.31, 3.95,
 0.49,0.20,0.83, 4.49, 13.19, 6.14,
 0.45,0.19,0.85, 2.79, 10.72, 6.17,
 0.47,0.19,0.87, -0.66, 9.25, 5.65,
 0.45,0.19,0.86, -2.98, 8.46, 5.40,
 0.48,0.19,0.85, -3.07, 10.46, 6.06,
 0.48,0.20,0.85, -2.21, 11.08, 7.30,
 0.44,0.18,0.83, -4.73, 10.84, 6.75,
 0.46,0.18,0.84, -5.34, 9.77, 7.10,
 0.48,0.18,0.80, -1.69, 8.47, 6.52,
 0.51,0.19,0.80, 1.98, 15.37, 9.80,
 0.39,0.20,0.84, -0.75, 2.70, 13.73,
 0.43,0.16,0.85, 0.27, -0.61, 10.06,
 0.46,0.21,0.82, -3.02, 5.07, 9.83,
 0.45,0.19,0.83, -1.94, 10.60, 10.85,
 0.43,0.19,0.81, -1.77, 7.25, 10.96,
 0.42,0.19,0.82, -0.63, 7.36, 10.87,
 0.42,0.20,0.80, -0.93, 6.49, 9.94,
 0.43,0.20,0.82, -1.11, 4.84, 8.87,
 0.44,0.19,0.83, -1.04, 3.82, 8.67,
 0.45,0.19,0.84, -1.66, 4.43, 8.70,
 0.44,0.20,0.83, -2.31, 6.34, 7.86,
 0.43,0.21,0.84, -2.67, 7.08, 6.73,
 0.42,0.21,0.84, -2.96, 6.60, 5.83,
 0.43,0.18,0.83, -3.74, 7.05, 3.73,
 0.43,0.19,0.82, -3.62, 6.75, 2.60,
 0.43,0.17,0.81, 3.16, 6.98, 0.90,
 0.44,0.15,0.78, 5.48, 11.94, 1.86,
 0.47,0.19,0.88, 2.49, -1.24, -2.32,
 0.44,0.17,0.82, 4.06, -2.03, -2.15,
 0.49,0.18,0.81, -0.15, 5.77, 0.76,
 0.48,0.17,0.81, -1.76, 5.85, 1.82,
 0.47,0.16,0.81, -1.82, 4.63, 1.71,
 0.48,0.17,0.79, 0.31, 5.04, 0.82,
 0.48,0.17,0.79, 0.75, 5.60, 1.21,
 0.48,0.17,0.80, 0.78, 5.01, 2.11,
 0.49,0.18,0.80, 2.03, 3.18, 2.47,
 0.48,0.17,0.80, 2.29, 4.34, 2.50,
 0.48,0.19,0.80, 2.03, 4.66, 3.07,
 0.48,0.19,0.80, 2.20, 5.95, 3.59,
 0.48,0.19,0.79, 3.05, 7.45, 3.77,
 0.48,0.19,0.80, 2.90, 8.18, 4.23,
 0.46,0.19,0.81, 1.37, 7.01, 4.90,
 0.46,0.18,0.81, 1.34, 6.66, 4.82,
 0.46,0.17,0.80, 1.76, 6.92, 3.80,
 0.44,0.18,0.80, 2.50, 6.38, 4.34,
 0.44,0.17,0.80, 2.27, 5.76, 4.18,
 0.44,0.17,0.80, 2.55, 3.97, 3.82,
 0.44,0.17,0.79, 2.76, 2.56, 3.37,
 0.45,0.19,0.80, 3.07, 1.04, 3.74,
 0.46,0.19,0.81, 3.25, 0.89, 4.53,
 0.47,0.20,0.81, 3.57, 1.04, 5.51,
 0.47,0.20,0.82, 3.48, 1.86, 6.61,
 0.47,0.21,0.83, 2.06, 2.60, 7.10,
 0.46,0.21,0.84, 0.70, 4.34, 7.50,
 0.44,0.21,0.81, 0.38, 4.46, 7.92,
 0.43,0.20,0.82, 0.53, 4.11, 7.36,
 0.43,0.20,0.82, 0.64, 3.19, 5.89,
 0.43,0.21,0.82, 0.06, 2.79, 4.89,
 0.44,0.21,0.83, -0.40, 2.05, 4.60,
 0.44,0.21,0.83, -0.61, 1.24, 4.66,
 0.45,0.22,0.84, -0.79, 1.51, 4.49,
 0.46,0.22,0.83, -1.47, 2.02, 5.10,
 0.45,0.22,0.84, -2.29, 2.60, 5.80,
 0.45,0.21,0.84, -1.86, 2.12, 6.52,
 0.45,0.21,0.83, -1.66, 2.43, 6.90,
 0.46,0.21,0.85, 5.94, 0.34, 3.89,
 0.44,0.20,0.80, 8.26, 3.94, 2.47,
 0.47,0.21,0.86, 2.21, 4.70, 4.18,
 0.47,0.22,0.86, -1.25, 4.95, 4.37,
 0.48,0.21,0.84, -3.15, 6.14, 4.43,
 0.47,0.21,0.82, -3.27, 7.56, 4.87,
 0.46,0.21,0.81, -3.02, 7.19, 4.96,
 0.45,0.21,0.82, -2.37, 6.58, 4.52,
 0.46,0.21,0.82, -2.21, 6.14, 4.70,
 0.46,0.21,0.81, -2.69, 4.98, 5.91,
 0.47,0.20,0.82, -2.70, 4.67, 7.85,
 0.45,0.19,0.79, -1.73, 5.62, 8.79,
 0.45,0.19,0.80, 2.96, 6.73, 10.00,
 0.40,0.17,0.79, 3.01, 5.07, 9.57,
 0.41,0.18,0.81, 0.87, 2.58, 9.60,
 0.42,0.18,0.80, 1.98, 1.27, 9.36,
 0.43,0.19,0.79, 4.05, 1.22, 9.25,
 0.43,0.19,0.81, 5.45, 1.15, 9.21,
 0.43,0.20,0.82, 6.61, 0.73, 9.48,
 0.44,0.21,0.83, 6.60, 1.31, 9.01,
 0.44,0.21,0.85, 6.50, 1.62, 8.44,
 0.44,0.22,0.85, 5.08, 1.85, 8.20,
 0.44,0.23,0.86, 4.05, 1.76, 8.32,
 0.45,0.22,0.87, 3.71, 3.08, 7.77,
 0.44,0.23,0.88, 2.85, 4.75, 7.05,
 0.45,0.23,0.89, 2.35, 6.56, 6.50,
 0.45,0.23,0.87, 0.69, 7.69, 6.96,
 0.45,0.22,0.87, -0.76, 7.34, 7.51,
 0.45,0.22,0.85, -1.11, 5.66, 8.03,
 0.45,0.21,0.85, -1.98, 5.15, 8.99,
 0.45,0.20,0.83, -2.37, 5.28, 9.48,
 0.45,0.20,0.83, -2.43, 5.01, 9.85,
 0.46,0.20,0.82, -2.14, 4.99, 10.79,
 0.45,0.19,0.81, -1.71, 5.18, 11.59,
 0.44,0.20,0.82, -0.76, 4.78, 11.86,
 0.44,0.19,0.81, 0.98, 4.66, 11.95,
 0.43,0.20,0.81, 1.50, 4.61, 12.09,
 0.43,0.20,0.83, 1.54, 3.56, 11.76,
 0.43,0.20,0.84, 1.82, 3.97, 11.39,
 0.44,0.20,0.83, 2.06, 4.69, 10.23,
 0.44,0.19,0.85, 1.59, 5.53, 8.85,
 0.44,0.20,0.86, 0.66, 5.47, 8.08,
 0.44,0.20,0.87, -0.58, 5.85, 6.81,
 0.45,0.20,0.86, -2.06, 6.23, 6.11,
 0.45,0.20,0.86, -2.66, 6.72, 6.34,
 0.45,0.19,0.86, -2.87, 7.50, 7.21,
 0.45,0.18,0.84, -3.07, 7.34, 8.00,
 0.44,0.19,0.84, -2.63, 7.18, 9.15,
 0.44,0.19,0.83, -2.69, 6.46, 10.12,
 0.43,0.19,0.82, -2.12, 5.88, 10.78,
 0.43,0.19,0.81, -0.67, 4.92, 10.76,
 0.42,0.19,0.81, -0.24, 3.45, 10.67,
 0.41,0.20,0.83, 0.17, 2.70, 10.41,
 0.41,0.20,0.82, 0.35, 2.34, 10.23,
 0.41,0.21,0.83, 0.92, 0.52, 9.63,
 0.42,0.21,0.84, 1.27, 0.56, 8.78,
 0.41,0.22,0.85, 0.18, 0.82, 7.94,
 0.42,0.22,0.86, 0.38, 1.39, 6.53,
 0.43,0.23,0.85, -0.72, 2.35, 6.41,
 0.44,0.23,0.86, -0.75, 3.30, 6.18,
 0.45,0.23,0.85, -1.36, 4.55, 6.50,
 0.45,0.23,0.84, -1.92, 5.62, 7.37,
 0.44,0.21,0.84, -1.71, 6.06, 7.63,
 0.43,0.21,0.82, -1.37, 5.97, 7.95,
 0.43,0.20,0.80, -0.99, 6.14, 8.17,
 0.43,0.19,0.80, -0.85, 5.33, 7.85,
 0.42,0.18,0.78, -0.24, 3.50, 7.62,
 0.44,0.18,0.79, -0.23, 3.05, 7.69,
 0.45,0.18,0.78, 0.63, 3.60, 7.86,
 0.46,0.18,0.78, 1.57, 2.21, 8.58,
 0.46,0.18,0.79, 2.12, 1.42, 9.42,
 0.47,0.19,0.79, 2.29, 0.64, 10.52,
 0.46,0.20,0.80, 2.43, 0.15, 11.40,
 0.47,0.20,0.81, 2.90, -0.24, 11.97,
 0.47,0.21,0.82, 2.61, 0.76, 12.61,
 0.46,0.21,0.83, 2.50, 1.25, 12.84,
 0.46,0.21,0.82, 2.50, 1.56, 12.72,
 0.45,0.21,0.83, 2.46, 1.95, 12.56,
 0.45,0.22,0.83, 2.15, 2.66, 11.63,
 0.45,0.22,0.83, 1.73, 3.31, 10.95,
 0.44,0.22,0.83, 1.42, 3.21, 10.52,
 0.45,0.22,0.82, 0.95, 3.88, 10.46,
 0.45,0.22,0.82, 1.31, 4.50, 10.38,
 0.44,0.22,0.83, 1.89, 4.41, 10.49,
 0.46,0.22,0.81, 2.18, 3.48, 10.41,
 0.46,0.21,0.82, 1.76, 3.48, 10.44,
 0.45,0.20,0.82, 1.27, 4.40, 10.70,
 0.45,0.20,0.82, 0.87, 4.12, 10.58,
 0.45,0.20,0.82, 0.67, 4.85, 10.63,
 0.46,0.20,0.82, 0.70, 5.37, 10.70,
 0.46,0.20,0.83, 0.24, 5.30, 10.63,
 0.46,0.20,0.82, 0.02, 5.54, 10.50,
 0.46,0.20,0.82, 0.63, 5.44, 11.10,
 0.46,0.20,0.81, 0.96, 5.66, 11.02,
 0.44,0.21,0.82, 1.45, 5.39, 10.23,
 0.45,0.20,0.82, 1.65, 5.44, 9.74,
 0.44,0.21,0.83, 1.15, 5.54, 9.22,
 0.44,0.22,0.84, 1.07, 4.96, 9.39,
 0.44,0.22,0.85, 0.34, 5.37, 8.89,
 0.44,0.21,0.84, 0.12, 5.28, 8.21,
 0.43,0.22,0.83, -0.35, 5.34, 7.13,
 0.43,0.22,0.84, -0.53, 5.11, 6.53,
 0.43,0.22,0.83, -0.43, 5.66, 6.84,
 0.43,0.22,0.82, -0.09, 5.85, 6.79,
 0.41,0.21,0.79, 5.01, 10.26, 6.95,
 0.41,0.23,0.82, 3.30, 9.10, 10.60,
 0.41,0.23,0.82, 4.49, 8.55, 9.37,
 0.41,0.23,0.83, 1.28, 5.86, 10.50,
 0.39,0.24,0.81, 1.71, 6.17, 6.46,
 0.40,0.22,0.81, 1.83, 6.02, 8.75,
 0.40,0.23,0.82, 1.44, 5.73, 6.47,
 0.41,0.22,0.83, 1.18, 4.76, 6.96,
 0.42,0.23,0.83, 1.19, 5.04, 6.93,
 0.42,0.22,0.85, 0.27, 3.66, 7.33,
 0.43,0.22,0.83, 0.75, 4.20, 7.22,
 0.43,0.21,0.85, 0.76, 3.83, 6.92,
 0.44,0.23,0.83, 2.03, 6.64, 7.28,
 0.45,0.22,0.84, 2.46, 7.25, 8.00,
 0.45,0.22,0.85, 2.70, 7.66, 8.15,
 0.45,0.22,0.85, 2.31, 8.31, 7.85,