accl_x,accl_y,accl_z,gyro_x,gyro_y,gyro_z
 0.52,0.22,0.75, -4.70, 2.00, -3.07,
 0.52,0.22,0.75, -5.13, 1.47, -2.92,
 0.53,0.23,0.75, -5.33, 0.78, -2.67,
 0.55,0.22,0.76, -6.61, -0.32, -1.82,
 0.55,0.22,0.75, -6.53, -0.26, -1.04,
 0.56,0.22,0.77, -6.37, -0.92, -0.87,
 0.55,0.21,0.76, -5.97, 0.38, -1.77,
 0.55,0.22,0.77, -6.24, 0.47, -2.47,
 0.57,0.22,0.76, -5.98, 1.05, -2.64,
 0.57,0.22,0.78, -7.76, 1.77, -2.96,
 0.58,0.21,0.75, -6.41, 3.56, -2.95,
 0.57,0.21,0.76, -5.24, 3.59, -2.78,
 0.68,0.24,0.67, 1.47, 13.24, 8.06,
 0.54,0.17,0.75, -0.44, 4.52, 2.26,
 0.55,0.21,0.76, -1.11, 3.79, 2.03,
 0.56,0.21,0.77, -1.88, 2.20, 0.29,
 0.56,0.23,0.76, -3.37, 3.51, 1.25,
 0.55,0.22,0.77, -3.59, 3.05, 0.73,
 0.55,0.22,0.77, -4.00, 1.54, 0.32,
 0.56,0.21,0.76, -4.05, 1.27, 1.25,
 0.58,0.22,0.76, -3.51, 0.64, 2.32,
 0.56,0.22,0.76, -3.13, 0.29, 2.37,
 0.57,0.22,0.77, -3.25, 0.52, 1.97,
 0.57,0.21,0.77, -3.45, 1.95, 1.10,
 0.56,0.21,0.77, -3.59, 3.19, 0.78,
 0.56,0.20,0.76, -3.45, 4.08, 0.79,
 0.55,0.21,0.76, -3.65, 3.21, 0.38,
 0.54,0.22,0.77, -3.92, 2.05, 0.11,
 0.55,0.21,0.77, -3.89, 1.42, 0.87,
 0.54,0.22,0.76, -4.26, 0.92, 1.25,
 0.54,0.22,0.76, -4.70, 0.34, 1.30,
 0.55,0.21,0.76, -4.66, 0.12, 1.63,
 0.54,0.21,0.76, -4.35, -0.64, 1.86,
 0.55,0.22,0.75, -3.83, -0.67, 2.18,
 0.56,0.21,0.76, -3.45, -1.28, 2.21,
 0.56,0.21,0.76, -3.30, -1.33, 2.14,
 0.56,0.20,0.75, -2.61, -0.34, 1.98,
 0.56,0.21,0.75, -2.35, 0.37, 1.80,
 0.57,0.20,0.75, -2.21, 1.18, 1.74,
 0.55,0.20,0.76, -1.88, 1.68, 1.50,
 0.55,0.21,0.76, -2.31, 1.85, 1.33,
 0.55,0.21,0.75, -2.47, 1.88, 1.19,
 0.55,0.21,0.76, -2.49, 2.11, 0.55,
 0.55,0.22,0.77, -2.82, 2.44, 0.37,
 0.57,0.22,0.76, -3.07, 2.84, 0.20,
 0.58,0.22,0.76, -3.15, 3.31, 0.03,
 0.59,0.22,0.76, -2.84, 4.09, 0.23,
 0.60,0.21,0.74, -2.09, 4.56, 0.21,
 0.61,0.22,0.74, -1.71, 5.11, 0.52,
 0.61,0.22,0.74, -1.53, 5.42, 1.33,
 0.61,0.22,0.75, -1.36, 5.69, 2.40,
 0.61,0.22,0.74, -1.69, 5.31, 3.60,
 0.59,0.22,0.74, -1.39, 4.55, 4.79,
 0.58,0.21,0.73, -1.33, 3.08, 5.92,
 0.56,0.21,0.73, -0.96, 1.95, 6.31,
 0.55,0.21,0.74, -1.02, -0.75, 6.05,
 0.55,0.21,0.73, -0.09, -0.27, 5.45,
 0.55,0.21,0.73, -0.44, 1.11, 4.89,
 0.56,0.22,0.74, -0.20, 2.21, 4.02,
 0.57,0.22,0.74, -0.56, 4.47, 3.36,
 0.58,0.22,0.75, -0.24, 5.60, 3.01,
 0.59,0.22,0.75, -0.31, 6.78, 3.02,
 0.59,0.22,0.75, -0.14, 7.34, 3.39,
 0.58,0.22,0.76, -0.23, 7.47, 3.94,
 0.57,0.23,0.75, 0.29, 7.01, 4.43,
 0.56,0.22,0.75, 0.31, 5.76, 5.04,
 0.56,0.22,0.75, 0.03, 4.03, 5.65,
 0.54,0.22,0.75, -0.32, 2.03, 6.49,
 0.54,0.21,0.75, -0.50, -0.78, 6.73,
 0.54,0.21,0.74, -0.46, -0.90, 6.00,
 0.54,0.21,0.74, 0.03, -1.01, 5.42,
 0.55,0.21,0.74, -0.23, -0.72, 5.16,
 0.56,0.20,0.74, 0.64, 0.56, 4.24,
 0.57,0.21,0.74, 1.11, 2.24, 4.18,
 0.56,0.21,0.75, 1.94, 3.40, 4.15,
 0.58,0.21,0.75, 2.49, 4.21, 3.88,
 0.57,0.22,0.76, 3.07, 4.96, 3.63,
 0.57,0.22,0.77, 3.07, 4.93, 4.09,
 0.58,0.23,0.76, 2.89, 4.82, 4.75,
 0.56,0.22,0.78, 2.63, 4.35, 5.10,
 0.55,0.21,0.77, 2.24, 3.44, 5.73,
 0.55,0.20,0.78, 1.88, 2.40, 6.49,
 0.55,0.21,0.77, 1.79, 1.80, 6.95,
 0.54,0.20,0.78, 1.77, 1.04, 7.25,
 0.55,0.20,0.76, 2.09, 1.27, 7.30,
 0.56,0.19,0.75, 2.82, 2.46, 7.22,
 0.56,0.20,0.75, 3.71, 3.05, 7.60,
 0.56,0.20,0.76, 4.44, 3.44, 7.79,
 0.55,0.21,0.76, 4.78, 3.44, 7.85,
 0.55,0.21,0.77, 4.93, 3.33, 7.74,
 0.54,0.21,0.77, 4.87, 3.28, 7.94,
 0.54,0.22,0.78, 4.64, 3.30, 7.56,
 0.52,0.22,0.80, 3.88, 2.49, 6.96,
 0.52,0.23,0.80, 2.95, 2.38, 5.88,
 0.52,0.22,0.81, 2.08, 2.35, 5.15,
 0.53,0.22,0.81, 0.66, 3.01, 4.56,
 0.53,0.23,0.81, -0.32, 3.33, 4.17,
 0.54,0.22,0.81, -1.02, 3.83, 4.21,
 0.54,0.22,0.80, -1.16, 4.20, 4.02,
 0.55,0.22,0.79, -1.08, 4.09, 4.15,
 0.54,0.22,0.77, -1.25, 3.97, 4.38,
 0.54,0.22,0.78, -1.15, 3.27, 3.82,
 0.53,0.22,0.77, -1.31, 2.89, 3.77,
 0.53,0.23,0.78, -1.04, 1.91, 3.85,
 0.52,0.23,0.76, -1.13, 1.37, 4.35,
 0.51,0.23,0.77, -1.25, 0.34, 4.55,
 0.52,0.23,0.77, -1.53, -0.09, 4.98,
 0.51,0.23,0.77, -1.85, -0.98, 5.01,
 0.52,0.23,0.77, -1.74, -0.67, 5.16,
 0.52,0.23,0.78, -1.53, -0.38, 5.33,
 0.53,0.22,0.77, -1.31, 0.08, 5.19,
 0.53,0.23,0.78, -1.18, 1.11, 5.05,
 0.54,0.23,0.79, -1.04, 1.79, 4.53,
 0.54,0.23,0.78, -1.16, 2.73, 3.83,
 0.55,0.23,0.78, -1.25, 3.45, 3.83,
 0.56,0.23,0.79, -1.39, 3.71, 3.56,
 0.56,0.24,0.79, -1.89, 4.06, 3.88,
 0.57,0.23,0.79, -2.50, 4.60, 4.20,
 0.57,0.23,0.78, -3.25, 4.63, 4.18,
 0.56,0.23,0.79, -3.69, 4.41, 4.08,
 0.56,0.23,0.78, -4.12, 4.38, 4.46,
 0.55,0.23,0.77, -4.46, 4.43, 4.69,
 0.55,0.22,0.77, -4.61, 3.54, 4.95,
 0.53,0.22,0.76, -4.75, 3.27, 5.02,
 0.53,0.21,0.76, -4.26, 1.77, 4.14,
 0.52,0.22,0.76, -3.86, 3.10, 3.01,
 0.53,0.21,0.74, -3.59, 4.31, 1.44,
 0.53,0.22,0.74, -3.37, 5.02, 0.31,
 0.54,0.23,0.75, -3.18, 6.11, -0.29,
 0.55,0.23,0.76, -2.82, 6.84, -0.53,
 0.56,0.23,0.76, -3.11, 6.95, -0.52,
 0.57,0.23,0.77, -3.68, 7.30, -0.40,
 0.57,0.23,0.77, -3.94, 7.15, 0.44,
 0.56,0.22,0.77, -4.00, 6.35, 1.44,
 0.56,0.22,0.77, -4.53, 5.47, 1.85,
 0.56,0.21,0.77, -5.27, 4.23, 2.12,
 0.55,0.21,0.76, -5.86, 3.05, 2.50,
 0.54,0.20,0.76, -5.98, 2.46, 2.40,
 0.54,0.20,0.75, -5.68, 1.80, 1.83,
 0.55,0.20,0.75, -5.48, 1.83, 1.21,
 0.56,0.21,0.74, -5.05, 2.66, 0.90,
 0.56,0.20,0.73, -4.29, 3.30, 0.89,
 0.56,0.20,0.75, -4.15, 4.14, 0.78,
 0.57,0.21,0.74, -3.48, 4.72, 0.79,
 0.57,0.21,0.74, -2.72, 5.80, 0.67,
 0.57,0.22,0.75, -2.14, 6.15, 0.64,
 0.57,0.22,0.76, -2.18, 6.40, 0.99,
 0.57,0.22,0.76, -2.24, 6.26, 1.22,
 0.57,0.22,0.76, -2.85, 6.23, 1.77,
 0.56,0.22,0.77, -3.42, 6.06, 2.12,
 0.56,0.22,0.76, -3.80, 6.29, 2.02,
 0.56,0.22,0.76, -3.53, 5.85, 2.38,
 0.56,0.22,0.76, -3.30, 5.04, 2.79,
 0.55,0.22,0.76, -3.42, 4.29, 3.02,
 0.55,0.22,0.75, -3.48, 3.15, 3.36,
 0.55,0.22,0.75, -3.53, 2.46, 3.13,
 0.56,0.22,0.75, -3.54, 2.50, 2.96,
 0.55,0.22,0.76, -3.16, 2.49, 2.40,
 0.56,0.23,0.75, -3.47, 2.85, 2.41,
 0.56,0.22,0.75, -3.28, 3.36, 2.24,
 0.56,0.22,0.75, -3.18, 4.21, 1.83,
 0.56,0.22,0.75, -2.79, 4.95, 2.21,
 0.57,0.22,0.74, -2.64, 5.22, 2.60,
 0.56,0.22,0.73, -2.02, 5.22, 2.55,
 0.56,0.22,0.74, -1.69, 5.11, 2.85,
 0.55,0.22,0.75, -1.48, 4.93, 2.99,
 0.55,0.22,0.74, -1.62, 3.83, 3.42,
 0.55,0.21,0.74, -1.88, 3.56, 3.57,
 0.54,0.22,0.75, -2.09, 2.87, 3.21,
 0.55,0.22,0.75, -2.03, 2.81, 2.90,
 0.56,0.22,0.76, -2.20, 3.16, 2.89,
 0.57,0.22,0.74, -1.97, 3.57, 3.08,
 0.57,0.22,0.75, -1.86, 3.71, 3.37,
 0.57,0.22,0.75, -1.40, 3.82, 3.73,
 0.56,0.23,0.75, -1.15, 3.92, 4.23,
 0.55,0.22,0.75, -1.18, 4.24, 4.12,
 0.55,0.22,0.75, -0.93, 4.35, 3.77,
 0.55,0.22,0.75, -0.98, 4.76, 3.88,
 0.55,0.22,0.76, -0.66, 4.75, 3.83,
 0.54,0.21,0.75, -0.61, 4.38, 3.98,
 0.53,0.21,0.75, -0.52, 3.36, 4.53,
 0.54,0.20,0.74, -0.06, 2.69, 4.34,
 0.54,0.20,0.75, -0.11, 3.45, 3.76,
 0.55,0.20,0.75, 0.76, 3.82, 3.15,
 0.55,0.20,0.75, 0.82, 3.88, 3.34,
 0.56,0.21,0.76, 1.27, 4.38, 3.15,
 0.57,0.22,0.75, 1.62, 4.78, 3.56,
 0.57,0.22,0.78, 1.48, 4.64, 4.26,
 0.57,0.22,0.78, 1.62, 5.05, 4.44,
 0.57,0.22,0.78, 1.37, 5.57, 4.44,
 0.56,0.23,0.78, 1.01, 6.17, 4.81,
 0.56,0.22,0.79, 0.53, 6.63, 5.68,
 0.55,0.22,0.79, -0.47, 6.31, 6.31,
 0.55,0.22,0.78, -1.10, 6.14, 6.49,
 0.54,0.22,0.78, -1.47, 5.60, 6.35,
 0.53,0.21,0.78, -1.24, 5.39, 6.56,
 0.51,0.20,0.78, -1.69, 1.18, 7.01,
 0.53,0.20,0.76, -2.60, 4.58, 7.25,
 0.53,0.21,0.78, -0.34, 5.01, 6.03,
 0.54,0.22,0.78, 0.29, 3.10, 5.77,
 0.53,0.22,0.78, -0.55, 3.50, 5.92,
 0.54,0.23,0.78, -0.93, 4.31, 5.71,
 0.55,0.23,0.80, -0.35, 4.24, 4.87,
 0.56,0.22,0.79, -0.69, 5.92, 4.58,
 0.57,0.23,0.79, -0.78, 7.13, 4.52,
 0.57,0.23,0.80, -1.53, 7.74, 5.19,
 0.58,0.22,0.79, -1.73, 8.44, 5.69,
 0.57,0.22,0.79, -2.00, 8.09, 6.69,
 0.57,0.23,0.80, -2.29, 7.33, 8.00,
 0.56,0.22,0.79, -2.41, 5.82, 8.93,
 0.54,0.22,0.78, -2.50, 4.29, 9.54,
 0.52,0.22,0.78, -3.05, 2.90, 9.44,
 0.52,0.22,0.78, -4.00, 2.11, 9.19,
 0.52,0.22,0.77, -3.95, 1.88, 8.20,
 0.52,0.22,0.77, -3.91, 2.53, 6.99,
 0.52,0.22,0.75, -3.59, 3.65, 6.34,
 0.52,0.22,0.75, -3.15, 5.01, 5.60,
 0.53,0.22,0.74, -2.66, 5.92, 5.02,
 0.54,0.22,0.75, -2.40, 6.52, 5.13,
 0.54,0.21,0.76, -1.95, 7.18, 4.92,
 0.53,0.21,0.75, -1.88, 6.40, 5.24,
 0.54,0.20,0.76, -2.40, 4.96, 6.46,
 0.53,0.20,0.76, -2.00, 3.57, 7.18,
 0.53,0.20,0.76, -1.88, 1.86, 7.45,
 0.53,0.20,0.76, -1.98, 0.21, 7.65,
 0.53,0.20,0.76, -1.91, 0.21, 7.42,
 0.54,0.20,0.76, -1.36, 0.75, 6.72,
 0.55,0.21,0.75, -1.02, 1.85, 6.03,
 0.55,0.21,0.75, -0.56, 3.13, 5.65,
 0.55,0.21,0.75, -0.11, 4.20, 5.85,
 0.55,0.21,0.75, 0.79, 4.32, 6.11,
 0.55,0.21,0.75, 1.48, 4.40, 6.23,
 0.55,0.22,0.76, 2.06, 4.37, 6.87,
 0.54,0.21,0.77, 2.09, 4.35, 7.48,
 0.53,0.22,0.78, 2.26, 3.44, 7.97,
 0.52,0.22,0.77, 1.71, 2.60, 7.97,
 0.52,0.23,0.77, 1.07, 1.44, 7.54,
 0.51,0.22,0.78, 0.23, 1.18, 6.61,
 0.53,0.21,0.77, -0.64, 1.65, 5.88,
 0.53,0.22,0.77, -1.77, 2.60, 5.48,
 0.54,0.21,0.76, -1.71, 2.87, 5.68,
 0.54,0.21,0.75, -1.62, 2.85, 5.54,
 0.55,0.20,0.75, -0.75, 2.87, 5.76,
 0.56,0.21,0.75, -0.14, 2.43, 6.60,
 0.56,0.21,0.75, -0.05, 1.05, 7.92,
 0.54,0.22,0.76, 0.17, -2.03, 9.18,
 0.54,0.22,0.76, 0.76, -3.19, 9.07,
 0.53,0.22,0.77, 0.27, -3.15, 9.04,
 0.53,0.21,0.77, -0.20, -4.63, 8.96,
 0.53,0.21,0.77, -1.18, -4.99, 8.60,
 0.54,0.21,0.77, -0.79, -4.90, 7.86,
 0.54,0.21,0.76, -0.82, -4.37, 7.56,
 0.55,0.22,0.75, -0.63, -3.37, 7.31,
 0.55,0.22,0.75, -0.17, -2.35, 6.53,
 0.56,0.22,0.75, 0.61, -1.13, 6.53,
 0.57,0.23,0.76, 0.70, 0.44, 6.93,
 0.57,0.22,0.76, 1.24, 1.56, 6.79,
 0.56,0.22,0.77, 1.97, 2.38, 6.89,
 0.56,0.23,0.76, 1.79, 2.43, 6.85,
 0.56,0.22,0.77, 1.25, 2.93, 7.05,
 0.56,0.22,0.78, 0.53, 3.28, 6.84,
 0.55,0.22,0.77, 0.11, 3.27, 6.96,
 0.56,0.23,0.77, -0.17, 2.58, 6.76,
 0.56,0.22,0.77, -0.70, 1.48, 7.31,
 0.56,0.23,0.76, -0.61, 0.24, 7.66,
 0.56,0.23,0.76, -0.99, -1.10, 8.29,
 0.56,0.23,0.76, -0.82, -2.08, 9.25,
 0.57,0.22,0.76, -0.98, -2.60, 9.45,
 0.57,0.22,0.76, -0.70, -2.31, 9.95,
 0.56,0.21,0.77, -0.41, -1.48, 9.68,
 0.56,0.20,0.76, -0.34, -1.37, 9.10,
 0.57,0.19,0.77, 0.35, 0.38, 9.15,
 0.56,0.19,0.76, 0.76, 1.44, 9.02,
 0.56,0.19,0.76, 1.73, 2.38, 8.20,
 0.56,0.20,0.75, 2.31, 3.56, 7.50,
 0.56,0.20,0.76, 2.70, 3.98, 6.99,
 0.56,0.21,0.75, 2.75, 4.17, 6.75,
 0.56,0.21,0.76, 2.61, 3.63, 6.03,
 0.55,0.22,0.76, 3.11, 3.77, 5.02,
 0.55,0.22,0.76, 3.36, 3.85, 3.91,
 0.54,0.23,0.77, 3.28, 4.12, 2.99,
 0.55,0.24,0.78, 2.50, 4.53, 4.37,
 0.55,0.24,0.78, 1.91, 3.69, 5.51,
 0.54,0.24,0.78, 1.88, 2.69, 6.40,
 0.54,0.25,0.80, 1.27, 2.37, 7.11,
 0.52,0.24,0.79, 0.73, 2.23, 7.31,
 0.53,0.24,0.79, 0.18, 2.50, 7.62,
 0.53,0.24,0.78, -0.35, 2.32, 8.17,
 0.51,0.24,0.79, -0.73, 2.38, 7.44,
 0.51,0.24,0.78, -0.76, 1.91, 7.50,
 0.52,0.25,0.78, -1.01, 0.44, 7.65,
 0.51,0.24,0.77, -0.90, -0.66, 8.27,
 0.53,0.25,0.76, -1.15, -1.21, 9.86,
 0.53,0.23,0.77, -1.13, -2.89, 10.06,
 0.53,0.23,0.77, 0.00, -3.50, 9.34,
 0.55,0.22,0.76, 0.27, -0.67, 8.93,
 0.54,0.22,0.77, 0.08, 0.49, 8.35,
 0.55,0.22,0.76, 0.64, 2.14, 7.86,
 0.55,0.22,0.78, 0.66, 2.95, 7.98,
 0.56,0.22,0.77, 0.40, 2.67, 7.74,
 0.56,0.21,0.78, 0.14, 2.63, 7.21,
 0.57,0.21,0.77, -0.09, 3.30, 6.85,
 0.57,0.21,0.78, -0.29, 4.23, 6.21,
 0.59,0.21,0.77, -0.15, 5.42, 6.58,
 0.58,0.20,0.76, 0.06, 6.32, 7.22,
 0.58,0.20,0.77, -0.21, 6.92, 7.36,
 0.57,0.20,0.76, -0.32, 7.30, 7.53,
 0.57,0.19,0.75, 0.55, 7.21, 8.09,
 0.55,0.19,0.76, 1.31, 7.39, 8.17,
 0.55,0.19,0.75, 2.18, 7.04, 7.98,
 0.54,0.20,0.76, 3.04, 6.18, 7.44,
 0.54,0.21,0.77, 2.96, 5.28, 7.83,
 0.54,0.22,0.78, 2.70, 4.11, 7.97,
 0.54,0.23,0.78, 2.79, 3.04, 8.29,
 0.54,0.23,0.79, 1.92, 2.46, 8.44,
 0.54,0.24,0.79, 1.24, 2.11, 8.60,
 0.53,0.24,0.80, 0.53, 2.06, 8.08,
 0.54,0.24,0.80, -0.11, 2.41, 7.59,
 0.54,0.24,0.80, -0.70, 3.36, 6.99,
 0.54,0.23,0.80, -1.39, 4.38, 6.72,
 0.53,0.23,0.80, -1.92, 5.01, 6.11,
 0.55,0.23,0.78, -2.41, 5.60, 5.92,
 0.55,0.23,0.78, -3.16, 5.82, 6.34,
 0.55,0.22,0.78, -3.51, 5.33, 6.38,
 0.54,0.22,0.77, -4.35, 4.96, 6.90,
 0.55,0.22,0.76, -4.37, 4.29, 7.05,
 0.55,0.22,0.75, -4.06, 3.83, 6.75,
 0.55,0.21,0.75, -3.28, 2.58, 6.89,
 0.55,0.21,0.74, -2.61, 2.00, 7.13,
 0.55,0.20,0.74, -2.43, 1.63, 7.69,
 0.55,0.20,0.73, -1.69, 1.04, 8.14,
 0.55,0.21,0.74, -1.57, 0.50, 8.31,
 0.55,0.20,0.75, -1.15, 0.53, 8.31,
 0.55,0.21,0.74, -1.30, 0.38, 7.86,
 0.53,0.20,0.74, -1.54, 0.27, 7.77,
 0.54,0.21,0.76, -1.91, 0.35, 7.28,
 0.53,0.21,0.77, -2.72, 0.61, 6.24,
 0.55,0.21,0.75, -3.37, 1.56, 5.85,
 0.56,0.22,0.74, -3.79, 1.95, 5.66,
 0.57,0.20,0.74, -3.83, 2.32, 5.94,
 0.58,0.21,0.74, -3.50, 2.75, 6.47,
 0.58,0.20,0.73, -2.87, 3.24, 7.15,
 0.58,0.19,0.74, -2.02, 4.11, 7.47,
 0.57,0.20,0.73, -1.15, 4.23, 7.85,
 0.57,0.19,0.73, -0.37, 4.99, 7.98,
 0.57,0.19,0.73, 0.66, 5.24, 7.69,
 0.56,0.19,0.73, 1.08, 5.45, 7.69,
 0.55,0.20,0.74, 1.22, 5.68, 7.37,
 0.54,0.20,0.74, 1.48, 5.69, 6.92,
 0.54,0.21,0.75, 1.51, 6.31, 6.31,
 0.55,0.22,0.75, 1.91, 6.93, 6.21,
 0.55,0.21,0.76, 2.11, 7.16, 6.44,
 0.54,0.21,0.75, 2.43, 7.27, 6.53,
 0.54,0.21,0.75, 2.55, 7.07, 6.98,
 0.54,0.21,0.76, 2.23, 7.33, 7.19,
 0.54,0.22,0.76, 1.85, 7.18, 7.15,
 0.53,0.22,0.77, 1.47, 7.11, 7.13,
 0.52,0.21,0.77, 0.96, 6.47, 6.52,
 0.52,0.21,0.76, 0.52, 6.09, 6.02,
 0.52,0.22,0.75, 0.24, 5.19, 5.54,
 0.53,0.22,0.76, 0.52, 5.22, 4.76,
 0.55,0.22,0.75, 0.55, 4.98, 4.72,
 0.55,0.23,0.76, 0.81, 3.95, 4.90,
 0.57,0.21,0.75, 2.08, 5.86, 5.13,
 0.57,0.22,0.75, 2.31, 7.19, 5.73,
 0.58,0.21,0.76, 3.13, 7.54, 6.24,
 0.56,0.21,0.77, 2.95, 8.23, 5.92,
 0.57,0.21,0.77, 2.90, 9.31, 5.97,
 0.56,0.22,0.77, 2.09, 8.66, 5.88,
 0.56,0.22,0.77, 1.82, 9.10, 6.06,
 0.55,0.22,0.77, 1.71, 8.37, 5.77,
 0.55,0.22,0.78, 1.24, 7.15, 5.66,
 0.55,0.23,0.79, 0.40, 6.60, 5.28,
 0.56,0.22,0.77, -0.23, 6.58, 5.34,
 0.55,0.22,0.78, -0.49, 6.82, 5.27,
 0.56,0.22,0.77, -0.69, 6.75, 5.11,
 0.56,0.22,0.76, -0.40, 6.98, 5.33,
 0.55,0.22,0.76, 0.11, 7.57, 4.79,
 0.56,0.22,0.74, 0.92, 7.92, 5.27,
 0.55,0.22,0.75, 1.33, 7.16, 5.56,
 0.57,0.22,0.75, 1.82, 6.56, 6.06,
 0.56,0.22,0.76, 2.31, 6.53, 6.17,
 0.56,0.22,0.76, 2.46, 6.34, 6.23,
 0.57,0.22,0.78, 2.21, 6.11, 6.34,
 0.58,0.21,0.78, 1.73, 6.35, 6.41,
 0.58,0.22,0.77, 1.83, 7.34, 6.63,
 0.58,0.21,0.78, 1.36, 7.39, 6.69,
 0.57,0.21,0.77, 0.85, 7.83, 6.92,
 0.57,0.21,0.77, 0.90, 7.77, 7.45,
 0.57,0.22,0.78, 0.98, 8.24, 7.66,
 0.56,0.22,0.77, 1.02, 8.41, 8.21,
 0.54,0.23,0.76, 0.31, 1.22, 8.82,
 0.54,0.22,0.77, -0.17, 3.40, 9.30,
 0.54,0.22,0.76, 0.41, 3.37, 9.59,
 0.54,0.22,0.76, 0.37, 2.05, 9.30,
 0.54,0.22,0.76, 0.75, 2.60, 9.04,
 0.55,0.23,0.77, 0.92, 1.57, 9.42,
 0.55,0.21,0.76, 1.74, 3.01, 9.37,
 0.55,0.22,0.77, 2.00, 3.39, 9.07,
 0.55,0.21,0.77, 1.79, 4.05, 9.01,