accl_x,accl_y,accl_z,gyro_x,gyro_y,gyro_z
 0.48,0.20,0.79, -4.24, 0.75, -0.27,
 0.48,0.20,0.79, -4.03, 0.50, -0.06,
 0.48,0.21,0.79, -4.06, 0.35, -0.09,
 0.48,0.20,0.79, -3.86, -0.17, -0.31,
 0.48,0.20,0.79, -3.65, -0.08, -0.43,
 0.49,0.20,0.80, -3.36, 0.49, -0.66,
 0.49,0.20,0.81, -3.68, 1.13, -0.64,
 0.50,0.20,0.81, -3.69, 2.15, -0.78,
 0.50,0.20,0.81, -4.08, 2.90, -0.70,
 0.49,0.21,0.82, -4.02, 3.24, -0.87,
 0.49,0.22,0.82, -4.35, 3.22, -1.18,
 0.49,0.21,0.81, -4.44, 3.39, -1.31,
 0.49,0.22,0.82, -4.56, 3.39, -1.40,
 0.49,0.21,0.81, -4.85, 3.21, -1.57,
 0.49,0.21,0.81, -4.87, 2.87, -1.08,
 0.49,0.20,0.81, -5.02, 2.34, -1.05,
 0.49,0.21,0.81, -4.93, 2.08, -0.85,
 0.48,0.20,0.81, -4.92, 1.82, -0.81,
 0.49,0.21,0.80, -4.85, 1.54, -0.64,
 0.49,0.21,0.81, -4.81, 1.40, -0.69,
 0.49,0.20,0.80, -4.55, 1.25, -0.29,
 0.49,0.20,0.80, -4.66, 0.93, -0.06,
 0.49,0.20,0.80, -4.93, 0.60, 0.03,
 0.48,0.20,0.79, -4.84, 0.63, -0.17,
 0.49,0.21,0.80, -4.87, 0.67, -0.53,
 0.48,0.21,0.79, -4.96, 0.78, -0.76,
 0.49,0.20,0.80, -4.82, 1.27, -0.60,
 0.49,0.21,0.80, -4.84, 1.37, -0.95,
 0.49,0.21,0.81, -4.95, 1.63, -0.73,
 0.49,0.22,0.81, -5.11, 1.63, -0.99,
 0.49,0.21,0.82, -5.34, 1.97, -0.79,
 0.49,0.21,0.81, -5.37, 2.26, -0.82,
 0.48,0.21,0.80, -5.48, 2.52, -0.70,
 0.51,0.22,0.81, -5.71, 2.35, 1.92,
 0.47,0.20,0.79, -4.60, 1.86, 0.09,
 0.47,0.20,0.80, -4.95, 0.81, -0.14,
 0.48,0.20,0.80, -4.70, 0.47, 0.09,
 0.47,0.20,0.81, -4.66, -0.38, -0.37,
 0.48,0.20,0.80, -4.67, -0.37, -0.66,
 0.48,0.21,0.80, -4.82, -0.55, -0.38,
 0.49,0.21,0.80, -4.93, -0.85, 0.09,
 0.49,0.22,0.81, -5.07, -0.50, 0.11,
 0.49,0.21,0.81, -5.31, -0.12, 0.24,
 0.49,0.21,0.81, -5.47, 0.32, 0.34,
 0.50,0.21,0.82, -5.98, 0.34, 1.02,
 0.48,0.21,0.80, -5.27, 1.01, 0.34,
 0.48,0.20,0.80, -5.45, 1.47, -0.15,
 0.48,0.20,0.81, -5.16, 2.00, -0.92,
 0.49,0.21,0.80, -5.30, 2.31, -0.98,
 0.49,0.21,0.81, -5.62, 2.00, -1.31,
 0.49,0.21,0.79, -5.27, 1.65, -1.34,
 0.49,0.20,0.80, -5.22, 1.22, -1.42,
 0.50,0.20,0.79, -5.08, 1.63, -1.62,
 0.52,0.20,0.79, -5.04, 1.88, -1.60,
 0.54,0.20,0.79, -4.82, 2.02, -1.10,
 0.55,0.20,0.78, -3.95, 2.27, 0.05,
 0.56,0.20,0.79, -3.54, 2.63, 1.59,
 0.55,0.20,0.79, -2.93, 2.98, 2.63,
 0.55,0.20,0.79, -2.75, 3.01, 3.79,
 0.53,0.20,0.78, -2.12, 2.92, 4.35,
 0.52,0.20,0.78, -1.92, 2.73, 4.46,
 0.51,0.20,0.79, -1.63, 2.37, 3.98,
 0.50,0.20,0.80, -1.65, 2.55, 3.77,
 0.50,0.20,0.80, -2.03, 2.47, 3.53,
 0.49,0.21,0.80, -2.26, 2.53, 3.28,
 0.48,0.21,0.80, -2.70, 2.38, 3.15,
 0.48,0.21,0.80, -2.85, 2.75, 2.43,
 0.48,0.22,0.80, -2.93, 2.82, 1.68,
 0.49,0.21,0.80, -3.16, 3.50, 0.95,
 0.49,0.21,0.80, -2.96, 4.58, 0.20,
 0.50,0.21,0.80, -3.19, 5.40, 0.21,
 0.51,0.21,0.80, -3.05, 5.80, 0.14,
 0.51,0.22,0.81, -3.31, 6.12, 0.32,
 0.51,0.21,0.79, -3.42, 6.35, 0.52,
 0.51,0.22,0.80, -3.73, 6.17, 1.30,
 0.51,0.22,0.80, -3.83, 5.27, 2.03,
 0.51,0.22,0.79, -3.89, 3.86, 3.10,
 0.50,0.21,0.79, -3.94, 2.52, 3.89,
 0.49,0.20,0.79, -4.20, 1.65, 4.43,
 0.48,0.19,0.78, -4.24, 1.01, 4.37,
 0.48,0.20,0.78, -3.77, 0.89, 4.05,
 0.49,0.19,0.78, -3.28, 1.91, 3.27,
 0.49,0.20,0.78, -2.49, 2.90, 2.41,
 0.50,0.20,0.77, -1.79, 4.46, 1.98,
 0.50,0.19,0.78, -1.16, 5.77, 1.98,
 0.50,0.20,0.78, -0.52, 6.72, 1.88,
 0.50,0.21,0.79, -0.34, 7.16, 1.86,
 0.50,0.21,0.79, -0.17, 7.60, 2.34,
 0.49,0.22,0.80, -0.41, 7.45, 2.58,
 0.48,0.22,0.80, -0.64, 6.32, 3.44,
 0.46,0.21,0.81, -1.21, 4.44, 3.76,
 0.46,0.20,0.80, -1.91, 3.30, 4.11,
 0.45,0.20,0.80, -2.06, 1.05, 4.78,
 0.44,0.20,0.79, -1.95, -0.27, 5.36,
 0.43,0.19,0.79, -1.68, -2.23, 5.59,
 0.43,0.20,0.78, -0.84, -3.10, 5.36,
 0.43,0.20,0.77, -0.32, -3.27, 4.93,
 0.43,0.20,0.78, 0.03, -3.11, 3.95,
 0.44,0.21,0.79, 0.79, -1.91, 2.64,
 0.45,0.22,0.81, 0.72, -0.24, 1.54,
 0.46,0.21,0.80, 0.75, 1.44, 0.64,
 0.47,0.22,0.82, -0.15, 2.37, -0.67,
 0.48,0.23,0.82, -0.73, 3.91, -1.62,
 0.51,0.23,0.82, -1.30, 5.19, -1.80,
 0.52,0.23,0.82, -1.76, 5.51, -1.36,
 0.53,0.23,0.82, -1.95, 5.45, -0.63,
 0.53,0.22,0.83, -2.06, 4.38, 0.93,
 0.53,0.22,0.83, -2.41, 2.93, 1.85,
 0.53,0.22,0.83, -2.72, 2.08, 2.93,
 0.53,0.22,0.82, -3.48, 1.34, 3.82,
 0.52,0.22,0.83, -4.05, 1.01, 4.61,
 0.51,0.22,0.81, -4.27, 0.82, 4.93,
 0.50,0.22,0.81, -4.29, 0.79, 4.84,
 0.50,0.21,0.80, -4.23, 0.96, 4.76,
 0.50,0.22,0.80, -4.44, 1.65, 4.34,
 0.51,0.22,0.80, -4.29, 2.34, 4.14,
 0.50,0.22,0.79, -4.21, 3.25, 3.62,
 0.50,0.22,0.80, -3.85, 4.03, 3.16,
 0.51,0.21,0.78, -3.95, 5.24, 2.50,
 0.51,0.21,0.79, -3.56, 6.44, 2.02,
 0.52,0.22,0.79, -3.42, 6.95, 2.31,
 0.52,0.21,0.79, -3.22, 7.45, 2.56,
 0.52,0.20,0.78, -3.24, 7.37, 3.47,
 0.51,0.20,0.78, -3.22, 6.98, 4.38,
 0.50,0.19,0.77, -2.96, 6.47, 5.48,
 0.49,0.19,0.77, -2.47, 5.65, 5.82,
 0.48,0.19,0.76, -1.62, 5.05, 6.14,
 0.48,0.18,0.76, -0.89, 4.37, 6.00,
 0.47,0.20,0.77, -1.22, 4.06, 6.66,
 0.48,0.19,0.76, 0.40, 2.40, 5.42,
 0.48,0.20,0.77, 0.72, 4.29, 4.58,
 0.50,0.20,0.78, 1.82, 4.81, 3.63,
 0.50,0.20,0.79, 0.90, 5.22, 3.51,
 0.51,0.21,0.80, 1.25, 6.35, 3.31,
 0.51,0.21,0.80, 1.05, 7.22, 3.08,
 0.52,0.21,0.81, 1.02, 7.82, 3.56,
 0.52,0.22,0.81, 0.98, 8.53, 3.92,
 0.51,0.21,0.81, 1.02, 8.21, 4.56,
 0.51,0.20,0.81, 1.10, 8.26, 5.16,
 0.50,0.21,0.81, 0.49, 7.77, 6.17,
 0.49,0.20,0.80, 0.87, 6.69, 6.63,
 0.48,0.20,0.81, 0.75, 6.18, 7.13,
 0.47,0.20,0.80, 0.92, 4.58, 7.21,
 0.47,0.20,0.79, 0.99, 4.34, 7.08,
 0.47,0.20,0.80, 1.22, 4.08, 6.67,
 0.46,0.22,0.80, 1.21, 4.08, 6.29,
 0.48,0.21,0.81, 1.31, 4.53, 5.42,
 0.48,0.22,0.82, 1.40, 5.45, 5.19,
 0.49,0.22,0.82, 1.02, 6.43, 5.07,
 0.50,0.22,0.82, 0.67, 6.98, 5.07,
 0.50,0.23,0.84, 0.52, 7.74, 5.10,
 0.50,0.22,0.84, 0.20, 7.94, 5.68,
 0.49,0.22,0.83, 0.05, 7.85, 6.38,
 0.49,0.21,0.83, -0.50, 7.01, 7.33,
 0.48,0.21,0.82, -1.02, 6.11, 8.43,
 0.47,0.20,0.82, -1.24, 5.66, 8.93,
 0.45,0.21,0.82, -1.15, 4.49, 8.76,
 0.45,0.20,0.81, -0.89, 3.97, 8.20,
 0.45,0.21,0.80, -0.78, 4.29, 7.63,
 0.46,0.21,0.82, -0.34, 4.92, 7.13,
 0.47,0.22,0.81, -0.66, 5.63, 6.72,
 0.47,0.22,0.82, -0.43, 6.06, 6.11,
 0.48,0.23,0.82, -0.08, 6.64, 5.73,
 0.48,0.22,0.82, -0.15, 6.78, 5.88,
 0.48,0.23,0.82, -0.32, 6.67, 6.40,
 0.48,0.22,0.84, -0.37, 6.09, 6.60,
 0.47,0.23,0.83, -1.15, 5.50, 7.18,
 0.47,0.22,0.83, -2.02, 4.78, 7.44,
 0.46,0.23,0.83, -2.66, 4.21, 7.63,
 0.46,0.22,0.81, -2.89, 4.49, 7.33,
 0.46,0.22,0.81, -3.01, 4.70, 6.89,
 0.46,0.21,0.80, -3.11, 5.40, 7.05,
 0.46,0.22,0.79, -2.79, 6.40, 6.43,
 0.47,0.21,0.79, -2.31, 7.63, 6.18,
 0.47,0.20,0.79, -2.14, 8.76, 5.71,
 0.47,0.21,0.79, -1.56, 9.56, 5.33,
 0.47,0.21,0.80, -0.95, 9.92, 5.01,
 0.47,0.21,0.79, -0.53, 9.82, 5.22,
 0.48,0.22,0.80, -0.75, 9.31, 5.66,
 0.48,0.22,0.81, -0.90, 8.29, 6.26,
 0.48,0.22,0.81, -1.10, 6.98, 6.66,
 0.47,0.21,0.82, -1.57, 6.40, 6.99,
 0.47,0.21,0.81, -1.97, 5.97, 7.08,
 0.47,0.21,0.81, -2.40, 5.47, 7.18,
 0.47,0.21,0.81, -2.84, 5.57, 7.24,
 0.47,0.21,0.80, -2.70, 5.94, 6.92,
 0.47,0.20,0.81, -2.49, 6.69, 6.50,
 0.47,0.20,0.79, -1.91, 7.80, 6.05,
 0.48,0.19,0.80, -0.98, 8.87, 5.97,
 0.48,0.19,0.79, -0.47, 9.95, 5.59,
 0.48,0.20,0.80, 0.02, 10.75, 5.50,
 0.48,0.20,0.79, 0.73, 11.16, 6.03,
 0.47,0.20,0.80, 0.85, 10.69, 6.41,
 0.47,0.21,0.81, 1.07, 9.33, 6.95,
 0.46,0.22,0.81, 0.99, 7.97, 7.54,
 0.46,0.22,0.82, 0.40, 6.78, 7.71,
 0.45,0.22,0.82, -0.15, 5.92, 7.94,
 0.45,0.22,0.82, -0.35, 5.13, 8.20,
 0.44,0.23,0.82, -0.47, 4.90, 7.76,
 0.43,0.22,0.82, -0.64, 5.22, 7.08,
 0.43,0.22,0.83, -0.89, 5.92, 5.77,
 0.44,0.21,0.82, -1.01, 7.18, 4.69,
 0.45,0.22,0.83, -1.22, 8.63, 3.73,
 0.46,0.22,0.83, -1.50, 9.16, 3.62,
 0.47,0.22,0.82, -1.48, 10.23, 3.63,
 0.48,0.22,0.83, -1.13, 10.41, 4.14,
 0.48,0.22,0.83, -1.02, 9.53, 5.04,
 0.46,0.21,0.83, -0.96, 8.67, 5.68,
 0.45,0.22,0.83, -1.22, 7.36, 6.35,
 0.44,0.22,0.83, -1.28, 6.47, 6.64,
 0.42,0.23,0.82, -1.45, 5.25, 6.53,
 0.42,0.24,0.83, -1.13, 4.89, 6.27,
 0.41,0.23,0.82, -1.53, 5.18, 5.57,
 0.41,0.24,0.83, -1.22, 3.97, 5.42,
 0.42,0.23,0.83, -2.02, 4.20, 5.82,
 0.42,0.23,0.83, -2.03, 3.86, 5.07,
 0.42,0.23,0.83, -2.70, 4.21, 5.18,
 0.42,0.21,0.83, -2.76, 4.85, 4.49,
 0.42,0.22,0.82, -2.79, 5.62, 4.20,
 0.43,0.21,0.82, -2.75, 6.41, 3.57,
 0.43,0.21,0.83, -2.44, 6.69, 3.63,
 0.44,0.21,0.82, -2.31, 6.99, 3.11,
 0.44,0.21,0.82, -2.32, 6.47, 3.44,
 0.44,0.22,0.82, -2.38, 5.95, 3.39,
 0.45,0.22,0.82, -2.08, 4.73, 3.85,
 0.45,0.22,0.82, -1.95, 3.89, 4.37,
 0.45,0.22,0.82, -2.08, 2.81, 4.87,
 0.46,0.22,0.83, -2.32, 1.95, 5.10,
 0.45,0.21,0.83, -2.46, 1.36, 5.24,
 0.45,0.21,0.83, -2.67, 0.73, 5.48,
 0.45,0.21,0.81, -2.46, 1.16, 5.25,
 0.45,0.22,0.82, -2.29, 2.18, 4.72,
 0.45,0.22,0.83, -2.02, 3.63, 3.97,
 0.45,0.22,0.83, -2.21, 4.78, 3.44,
 0.46,0.22,0.82, -2.05, 6.29, 2.92,
 0.46,0.22,0.82, -2.43, 7.19, 2.21,
 0.47,0.22,0.83, -2.78, 7.69, 2.15,
 0.48,0.23,0.82, -2.95, 7.57, 2.49,
 0.48,0.22,0.83, -3.19, 6.90, 3.44,
 0.48,0.23,0.83, -3.44, 5.76, 4.63,
 0.47,0.22,0.83, -3.56, 4.87, 4.93,
 0.46,0.21,0.83, -3.31, 3.79, 5.37,
 0.46,0.22,0.82, -3.36, 3.22, 6.00,
 0.46,0.21,0.82, -3.54, 2.79, 6.27,
 0.45,0.20,0.81, -3.83, 2.43, 5.91,
 0.44,0.21,0.80, -3.80, 2.60, 5.54,
 0.45,0.21,0.80, -3.56, 2.89, 5.28,
 0.45,0.21,0.80, -3.45, 3.85, 4.82,
 0.46,0.21,0.79, -3.05, 4.99, 4.24,
 0.46,0.20,0.80, -2.63, 6.03, 3.92,
 0.47,0.20,0.80, -1.91, 7.25, 3.30,
 0.47,0.20,0.80, -1.19, 8.38, 3.04,
 0.48,0.21,0.80, -0.52, 9.44, 3.10,
 0.47,0.20,0.81, -0.11, 9.85, 3.33,
 0.47,0.21,0.80, -0.08, 9.28, 3.80,
 0.46,0.21,0.81, -0.14, 8.27, 4.41,
 0.46,0.21,0.81, -0.49, 7.11, 5.16,
 0.46,0.21,0.82, -0.81, 5.66, 6.20,
 0.45,0.21,0.82, -1.30, 4.12, 7.22,
 0.43,0.21,0.81, -1.57, 2.98, 7.53,
 0.43,0.21,0.82, -1.74, 2.38, 7.13,
 0.42,0.21,0.80, -2.00, 2.87, 6.78,
 0.44,0.20,0.80, -1.24, 2.90, 4.98,
 0.45,0.20,0.80, -1.24, 5.79, 3.95,
 0.46,0.21,0.81, 0.20, 6.81, 3.83,
 0.47,0.21,0.81, 0.43, 7.44, 3.95,
 0.47,0.22,0.82, 0.82, 8.00, 4.69,
 0.47,0.23,0.82, 0.52, 7.73, 5.53,
 0.46,0.22,0.83, 0.00, 6.93, 6.67,
 0.46,0.23,0.83, -0.47, 6.24, 7.15,
 0.45,0.23,0.83, -0.60, 5.24, 7.48,
 0.43,0.23,0.82, -0.98, 4.87, 7.45,
 0.43,0.22,0.83, -1.33, 4.70, 7.48,
 0.43,0.21,0.82, -1.65, 4.72, 6.82,
 0.43,0.21,0.82, -1.89, 5.28, 6.55,
 0.43,0.21,0.81, -1.48, 5.31, 6.03,
 0.44,0.20,0.81, -0.98, 6.55, 5.33,
 0.44,0.21,0.81, 0.15, 6.85, 5.22,
 0.45,0.20,0.81, 0.37, 7.24, 5.25,
 0.45,0.21,0.83, 0.60, 7.19, 5.77,
 0.45,0.21,0.82, 0.75, 6.99, 6.53,
 0.45,0.23,0.83, 0.61, 6.14, 7.40,
 0.45,0.23,0.84, 0.35, 4.76, 7.95,
 0.45,0.22,0.84, -0.24, 3.63, 8.21,
 0.44,0.22,0.84, -0.55, 2.98, 8.44,
 0.44,0.23,0.84, -0.98, 2.76, 8.31,
 0.43,0.23,0.83, -1.15, 3.04, 7.97,
 0.43,0.22,0.84, -1.76, 3.69, 7.57,
 0.44,0.22,0.84, -2.29, 4.66, 6.75,
 0.43,0.22,0.84, -2.78, 5.60, 6.09,
 0.44,0.22,0.82, -2.70, 6.23, 5.79,
 0.46,0.21,0.82, -2.56, 7.39, 5.86,
 0.46,0.20,0.81, -1.76, 8.03, 6.35,
 0.46,0.20,0.80, -0.89, 8.24, 7.04,
 0.45,0.20,0.81, 0.23, 8.34, 7.68,
 0.45,0.20,0.82, 0.96, 7.92, 8.21,
 0.44,0.21,0.82, 1.74, 7.30, 8.49,
 0.43,0.21,0.82, 1.86, 6.84, 8.17,
 0.43,0.21,0.84, 1.42, 6.06, 8.26,
 0.43,0.22,0.84, 0.35, 5.50, 8.41,
 0.42,0.22,0.84, -0.09, 4.84, 8.09,
 0.42,0.23,0.84, -0.50, 4.78, 7.44,
 0.42,0.23,0.84, -1.02, 5.56, 6.40,
 0.43,0.22,0.84, -1.15, 6.90, 5.97,
 0.44,0.23,0.83, -0.99, 7.76, 5.65,
 0.44,0.22,0.85, -1.13, 8.34, 5.56,
 0.45,0.22,0.84, -1.16, 8.73, 5.97,
 0.44,0.22,0.84, -1.34, 8.89, 6.61,
 0.44,0.21,0.84, -1.21, 8.90, 7.01,
 0.43,0.21,0.83, -1.44, 8.20, 7.15,
 0.43,0.22,0.83, -1.65, 7.50, 7.65,
 0.42,0.22,0.82, -1.45, 6.73, 7.65,
 0.40,0.23,0.83, -1.13, 5.85, 7.80,
 0.39,0.23,0.84, -1.28, 4.55, 7.79,
 0.40,0.23,0.84, -1.40, 3.56, 7.74,
 0.40,0.24,0.84, -1.57, 2.96, 7.45,
 0.39,0.24,0.84, -1.83, 2.64, 7.07,
 0.40,0.24,0.85, -2.37, 2.72, 6.69,
 0.40,0.23,0.84, -2.47, 3.30, 5.80,
 0.41,0.23,0.83, -2.85, 4.92, 5.02,
 0.41,0.23,0.84, -3.31, 6.31, 4.41,
 0.42,0.22,0.82, -3.16, 7.77, 3.47,
 0.43,0.22,0.82, -3.18, 8.95, 3.48,
 0.43,0.21,0.80, -2.63, 9.44, 3.63,
 0.43,0.20,0.81, -2.05, 9.56, 3.92,
 0.43,0.20,0.81, -2.03, 8.35, 4.81,
 0.42,0.21,0.80, -1.54, 6.58, 5.48,
 0.41,0.21,0.80, -1.27, 4.17, 6.81,
 0.40,0.21,0.80, -1.37, 1.65, 7.04,
 0.41,0.21,0.82, -1.27, 0.43, 7.21,
 0.41,0.21,0.81, -1.04, 0.26, 6.23,
 0.42,0.21,0.82, -0.90, 1.85, 5.33,
 0.43,0.22,0.83, -0.41, 4.00, 4.34,
 0.45,0.22,0.82, -0.15, 6.31, 3.85,
 0.45,0.23,0.84, -0.14, 8.29, 3.74,
 0.45,0.22,0.84, -0.37, 9.51, 3.98,
 0.44,0.22,0.84, -0.24, 10.44, 4.23,
 0.43,0.22,0.83, -0.56, 10.64, 4.29,
 0.43,0.22,0.84, -0.73, 10.21, 4.44,
 0.41,0.23,0.84, -0.79, 8.89, 5.04,
 0.41,0.23,0.82, -1.13, 6.40, 5.74,
 0.40,0.23,0.81, -1.54, 3.69, 6.76,
 0.40,0.22,0.82, -1.85, 1.60, 6.75,
 0.40,0.21,0.81, -1.82, 0.61, 6.37,
 0.41,0.21,0.81, -1.33, 1.57, 5.05,
 0.43,0.22,0.81, -0.79, 3.48, 4.11,
 0.44,0.21,0.82, -0.17, 5.80, 3.80,
 0.45,0.22,0.83, -0.20, 7.25, 4.20,
 0.44,0.22,0.83, -0.34, 7.44, 4.78,
 0.44,0.23,0.84, -0.44, 6.81, 5.25,
 0.43,0.22,0.83, -0.79, 6.43, 5.86,
 0.43,0.23,0.83, -0.96, 6.35, 5.89,
 0.42,0.24,0.83, -1.22, 6.02, 5.95,
 0.41,0.23,0.84, -1.34, 5.08, 6.46,
 0.41,0.23,0.83, -1.47, 3.53, 6.76,
 0.40,0.23,0.83, -1.28, 2.05, 6.84,
 0.40,0.23,0.81, -1.33, 1.13, 6.20,
 0.41,0.22,0.82, -1.25, 1.34, 5.51,
 0.42,0.23,0.81, -1.50, 2.60, 4.63,
 0.44,0.23,0.82, -0.84, 4.41, 4.17,
 0.45,0.23,0.82, -0.55, 5.68, 4.09,
 0.46,0.24,0.83, -0.17, 7.16, 4.08,
 0.46,0.23,0.83, 0.47, 7.39, 4.93,
 0.46,0.23,0.83, 0.95, 6.98, 5.36,
 0.45,0.23,0.84, 0.47, 6.00, 6.18,
 0.44,0.23,0.85, -0.18, 4.89, 6.50,
 0.43,0.24,0.85, -0.81, 3.48, 7.31,
 0.43,0.22,0.86, -1.74, 1.63, 7.40,
 0.43,0.22,0.84, -2.00, 1.92, 7.31,
 0.44,0.21,0.83, -2.26, 2.89, 7.28,
 0.44,0.20,0.82, -1.95, 3.37, 7.36,
 0.44,0.20,0.82, -1.57, 4.95, 7.57,
 0.45,0.20,0.81, -0.34, 6.46, 7.51,
 0.45,0.21,0.81, 0.81, 7.47, 7.88,
 0.44,0.21,0.81, 1.51, 8.11, 7.97,
 0.44,0.22,0.83, 2.06, 7.66, 8.18,
 0.43,0.22,0.82, 2.41, 6.92, 8.35,
 0.42,0.23,0.83, 2.23, 5.83, 8.46,
 0.42,0.23,0.84, 1.60, 4.99, 9.18,
 0.42,0.23,0.85, 0.87, 4.50, 9.04,
 0.42,0.23,0.85, 0.18, 3.91, 8.70,
 0.42,0.23,0.85, -0.17, 4.52, 8.34,
 0.42,0.23,0.85, -0.34, 5.42, 7.86,
 0.42,0.22,0.84, -0.46, 6.02, 7.88,
 0.43,0.22,0.84, -0.20, 6.66, 7.98,
 0.43,0.22,0.84, -0.06, 7.33, 8.14,
 0.42,0.21,0.82, 0.15, 7.71, 8.06,
 0.42,0.22,0.83, 0.00, 7.50, 8.26,
 0.42,0.22,0.83, 0.02, 7.16, 8.75,
 0.42,0.22,0.84, -0.02, 6.47, 8.55,
 0.42,0.23,0.83, -0.09, 6.06, 9.01,
 0.42,0.21,0.83, -0.52, 5.94, 9.02,
 0.43,0.22,0.83, -0.66, 6.08, 8.84,
 0.43,0.22,0.84, -0.69, 6.00, 8.99,
 0.44,0.22,0.83, -0.29, 5.89, 9.34,
 0.43,0.22,0.83, -0.32, 5.68, 9.79,
 0.42,0.23,0.83, -0.15, 5.45, 10.55,
 0.41,0.23,0.84, -0.14, 4.99, 10.78,
 0.41,0.22,0.83, -0.08, 4.69, 11.04,
 0.41,0.22,0.84, -0.18, 4.38, 11.07,