accl_x,accl_y,accl_z,gyro_x,gyro_y,gyro_z
 0.46,0.23,0.83, -4.47, -2.55, -1.53,
 0.47,0.23,0.82, -4.35, -1.76, -1.36,
 0.49,0.24,0.80, -3.98, -0.31, -0.70,
 0.48,0.24,0.82, -4.02, 0.72, 0.47,
 0.47,0.23,0.80, -3.71, 2.11, 0.37,
 0.46,0.23,0.83, -4.72, 0.38, 0.56,
 0.48,0.21,0.79, -3.22, 3.62, 0.37,
 0.49,0.23,0.81, -4.70, 5.53, 1.19,
 0.42,0.24,0.82, -5.48, 1.08, -0.63,
 0.48,0.23,0.78, -3.21, 3.53, 1.07,
 0.43,0.19,0.82, -4.58, 1.47, 0.09,
 0.46,0.22,0.78, -3.79, 2.21, 0.09,
 0.47,0.21,0.81, -3.97, 1.45, -0.26,
 0.46,0.23,0.81, -4.14, 0.75, -0.73,
 0.47,0.23,0.83, -4.90, 0.09, -0.52,
 0.48,0.22,0.78, -2.92, 2.81, -1.08,
 0.44,0.24,0.85, -5.60, 0.34, -1.40,
 0.46,0.25,0.80, -4.47, 1.60, -0.44,
 0.48,0.22,0.81, -3.73, 3.82, -0.35,
 0.48,0.23,0.80, -3.74, 4.79, 0.09,
 0.45,0.23,0.82, -4.14, 3.54, -0.24,
 0.47,0.22,0.81, -4.23, 4.85, 0.17,
 0.43,0.20,0.82, -3.86, 4.66, -1.73,
 0.45,0.22,0.83, -3.74, 4.63, 1.27,
 0.43,0.19,0.80, -4.73, 4.29, -1.10,
 0.45,0.22,0.83, -5.37, 2.34, 0.21,
 0.42,0.23,0.82, -5.74, 1.08, -1.28,
 0.45,0.23,0.82, -4.58, 2.76, -0.32,
 0.46,0.21,0.83, -4.47, 2.64, 0.02,
 0.44,0.22,0.83, -4.72, 1.97, 0.05,
 0.47,0.23,0.84, -4.52, 2.60, 0.67,
 0.44,0.23,0.84, -3.45, 2.49, -0.21,
 0.47,0.24,0.84, -2.66, 3.76, 2.06,
 0.44,0.22,0.85, -3.57, 2.32, -0.69,
 0.48,0.23,0.82, -2.37, 5.33, 0.58,
 0.49,0.21,0.84, -3.08, 7.56, 0.05,
 0.45,0.22,0.85, -4.23, 6.00, -2.90,
 0.50,0.24,0.82, -3.36, 7.57, -0.52,
 0.46,0.22,0.83, -3.89, 7.73, -1.91,
 0.46,0.23,0.83, -3.86, 7.91, -3.33,
 0.51,0.24,0.82, -3.98, 8.29, -1.13,
 0.43,0.23,0.81, -4.72, 5.45, -4.82,
 0.58,0.23,0.79, -2.20, 9.48, 1.47,
 0.47,0.22,0.81, -5.97, 7.22, -1.04,
 0.45,0.30,0.81, -5.94, 3.66, -1.40,
 0.54,0.28,0.81, -5.27, 5.54, 5.85,
 0.52,0.17,0.74, -5.40, 7.42, 0.08,
 0.54,0.21,0.79, -5.88, 7.66, 2.78,
 0.53,0.24,0.78, -6.26, 6.49, 3.57,
 0.49,0.24,0.76, -5.02, 5.27, 2.21,
 0.50,0.24,0.80, -5.45, 4.53, 3.30,
 0.54,0.25,0.76, -5.59, 5.91, 2.58,
 0.48,0.23,0.79, -6.29, 4.24, 1.54,
 0.50,0.26,0.76, -5.19, 3.25, 4.92,
 0.50,0.22,0.79, -6.50, 4.67, 2.56,
 0.46,0.22,0.78, -6.55, 3.25, 3.47,
 0.52,0.23,0.76, -6.98, 4.18, 3.68,
 0.44,0.21,0.78, -6.76, 1.73, 2.43,
 0.49,0.22,0.77, -6.81, 0.95, 3.82,
 0.48,0.23,0.77, -5.98, -0.95, 2.41,
 0.48,0.22,0.76, -3.37, -5.74, -3.24,
 0.53,0.23,0.77, -3.22, -2.75, 4.18,
 0.47,0.20,0.77, -3.68, -1.07, 2.03,
 0.50,0.26,0.82, -5.74, -2.15, 4.05,
 0.48,0.21,0.77, -4.79, -1.16, 2.20,
 0.44,0.22,0.84, -6.11, -3.92, 4.53,
 0.46,0.24,0.80, -5.30, -2.44, 5.15,
 0.44,0.23,0.80, -6.52, -0.72, 3.04,
 0.46,0.25,0.81, -6.63, -1.05, 5.47,
 0.44,0.19,0.78, -4.87, 0.56, 4.38,
 0.44,0.21,0.79, -5.05, 0.50, 3.22,
 0.43,0.19,0.79, -3.33, 1.85, 0.81,
 0.40,0.21,0.81, -2.52, 1.40, 1.21,
 0.39,0.22,0.79, -1.02, 0.95, -0.34,
 0.42,0.22,0.82, 0.31, 0.08, 0.58,
 0.49,0.24,0.79, -1.73, 4.52, 0.35,
 0.47,0.23,0.81, -2.43, 3.08, -0.78,
 0.46,0.23,0.82, -2.58, 3.07, 1.53,
 0.51,0.23,0.79, -3.85, 5.66, 0.64,
 0.42,0.23,0.85, -5.08, 1.68, -0.53,
 0.44,0.25,0.82, -5.42, 0.35, 2.43,
 0.44,0.20,0.78, -5.59, 1.34, 1.71,
 0.51,0.20,0.78, -7.51, 1.18, 0.98,
 0.43,0.20,0.79, -8.15, -3.27, -0.98,
 0.48,0.20,0.76, -8.92, -2.58, -1.13,
 0.45,0.20,0.81, -12.99, -4.08, -2.95,
 0.37,0.26,0.84, -13.18, -8.82, -2.08,
 0.42,0.24,0.82, -13.69, -10.34, -3.54,
 0.45,0.22,0.81, -13.33, -10.32, 0.02,
 0.43,0.24,0.82, -14.29, -10.69, -2.02,
 0.51,0.23,0.81, -12.85, -11.19, 0.35,
 0.52,0.23,0.81, -14.35, -9.02, 1.79,
 0.47,0.24,0.88, -15.57, -17.05, 3.16,
 0.46,0.26,0.84, -12.69, -7.28, 4.72,
 0.53,0.25,0.82, -11.16, -5.86, 9.04,
 0.46,0.23,0.88, -12.92, -5.69, 8.52,
 0.44,0.29,0.88, -10.24, -5.92, 11.85,
 0.51,0.24,0.82, -10.15, -2.82, 12.20,
 0.52,0.21,0.85, -9.97, -0.29, 14.34,
 0.48,0.21,0.87, -9.89, 0.44, 14.06,
 0.44,0.19,0.86, -9.37, 0.76, 12.64,
 0.45,0.18,0.82, -8.75, 1.53, 8.76,
 0.50,0.17,0.87, -9.59, 3.37, 11.74,
 0.45,0.17,0.84, -7.89, 2.15, 6.84,
 0.46,0.18,0.83, -6.61, 2.12, 6.63,
 0.48,0.17,0.82, -6.32, 2.44, 7.24,
 0.49,0.17,0.80, -6.06, 3.63, 6.89,
 0.40,0.20,0.88, -7.71, -2.72, 5.07,
 0.45,0.20,0.82, -0.84, -2.00, 10.08,
 0.51,0.19,0.80, -3.80, -2.31, 8.18,
 0.47,0.20,0.84, -3.66, -4.02, 8.95,
 0.54,0.21,0.78, -0.92, -0.85, 9.21,
 0.47,0.22,0.90, -2.72, -2.98, 12.02,
 0.47,0.26,0.84, -1.47, -1.21, 10.78,
 0.50,0.23,0.83, 0.23, 2.43, 11.10,
 0.52,0.25,0.89, -2.61, 4.00, 13.01,
 0.48,0.21,0.81, 1.45, 9.45, 11.27,
 0.53,0.19,0.83, 0.35, 11.82, 11.65,
 0.51,0.22,0.83, -0.15, 13.04, 10.27,
 0.52,0.22,0.83, 1.57, 13.73, 12.17,
 0.47,0.18,0.84, 2.47, 13.34, 11.18,
 0.46,0.20,0.82, 3.05, 12.44, 12.99,
 0.49,0.21,0.82, 1.89, 11.27, 12.58,
 0.45,0.16,0.81, 2.49, 10.70, 12.87,
 0.49,0.18,0.81, 1.36, 9.97, 14.53,
 0.47,0.16,0.79, 1.45, 9.39, 14.02,
 0.41,0.18,0.82, -0.06, 6.40, 11.40,
 0.47,0.21,0.80, 1.01, 8.24, 12.63,
 0.50,0.18,0.80, 0.87, 10.82, 12.31,
 0.46,0.20,0.80, 1.22, 10.96, 10.53,
 0.48,0.20,0.80, 0.70, 12.06, 11.69,
 0.46,0.16,0.80, 1.25, 13.37, 11.16,
 0.48,0.20,0.79, 0.76, 14.67, 11.51,
 0.43,0.18,0.81, 1.63, 13.30, 10.06,
 0.45,0.16,0.79, 2.63, 12.43, 11.48,
 0.44,0.16,0.79, 2.15, 12.38, 10.99,
 0.43,0.18,0.79, 2.38, 9.95, 10.37,
 0.43,0.17,0.80, 1.57, 9.22, 9.33,
 0.42,0.19,0.79, 0.95, 7.27, 9.86,
 0.40,0.17,0.79, 2.46, 3.95, 10.29,
 0.46,0.18,0.79, 2.44, 6.76, 8.92,
 0.41,0.19,0.80, 3.53, 5.18, 7.80,
 0.47,0.18,0.80, 4.03, 6.08, 8.09,
 0.46,0.20,0.84, 3.04, 5.25, 7.08,
 0.49,0.22,0.83, 3.39, 7.79, 7.94,
 0.53,0.22,0.85, 1.54, 9.53, 9.65,
 0.47,0.21,0.83, 1.77, 10.05, 9.66,
 0.50,0.19,0.86, 0.27, 8.34, 11.31,
 0.47,0.19,0.86, -0.03, 9.22, 11.24,
 0.48,0.21,0.82, 0.37, 10.38, 9.28,
 0.45,0.19,0.84, 1.62, 11.31, 10.95,
 0.42,0.18,0.83, 2.61, 9.68, 9.42,
 0.48,0.20,0.79, 2.37, 10.69, 8.46,
 0.45,0.20,0.83, 2.02, 8.89, 8.35,
 0.47,0.20,0.81, 2.64, 11.36, 8.64,
 0.45,0.22,0.83, 1.34, 9.47, 7.53,
 0.47,0.22,0.82, 2.49, 8.53, 8.09,
 0.50,0.21,0.84, 1.59, 9.57, 8.72,
 0.48,0.21,0.83, 1.15, 10.09, 7.68,
 0.50,0.22,0.85, 0.49, 10.06, 9.47,
 0.49,0.19,0.84, 0.67, 10.92, 9.16,
 0.47,0.21,0.85, -1.76, 8.38, 9.60,
 0.45,0.19,0.84, -2.72, 9.31, 10.00,
 0.44,0.20,0.82, -2.18, 7.94, 9.50,
 0.46,0.21,0.83, -3.48, 7.63, 9.10,
 0.39,0.19,0.83, -2.64, 6.00, 8.14,
 0.44,0.19,0.83, -3.34, 4.84, 7.74,
 0.45,0.19,0.81, -3.44, 5.40, 7.40,
 0.44,0.19,0.82, -4.47, 3.28, 6.87,
 0.45,0.19,0.82, -2.73, 2.56, 5.57,
 0.49,0.21,0.83, -1.62, 3.51, 6.17,
 0.44,0.18,0.85, -1.59, 3.97, 5.30,
 0.48,0.22,0.86, -3.19, 5.25, 7.82,
 0.50,0.22,0.85, -5.45, 4.87, 7.04,
 0.50,0.23,0.86, -4.72, 4.81, 9.02,
 0.47,0.20,0.84, -4.18, 5.34, 9.16,
 0.48,0.22,0.85, -4.84, 5.51, 10.32,
 0.46,0.21,0.85, -4.72, 6.24, 11.65,
 0.45,0.19,0.83, -4.99, 5.88, 10.41,
 0.44,0.19,0.83, -3.16, 5.53, 10.53,
 0.46,0.18,0.83, -2.55, 5.37, 9.80,
 0.43,0.21,0.82, -2.66, 4.93, 6.93,
 0.45,0.19,0.83, -1.77, 4.93, 7.15,
 0.46,0.20,0.83, -1.25, 4.98, 6.34,
 0.47,0.19,0.84, -2.18, 5.74, 6.64,
 0.44,0.19,0.86, -2.95, 4.75, 6.76,
 0.43,0.19,0.86, -3.36, 3.63, 7.59,
 0.48,0.22,0.84, -5.80, 4.55, 8.87,
 0.48,0.24,0.86, -6.87, 2.44, 8.67,
 0.45,0.22,0.86, -6.08, 2.95, 9.59,
 0.49,0.20,0.83, -5.07, 4.31, 10.76,
 0.47,0.18,0.84, -5.65, 3.80, 12.31,
 0.49,0.19,0.83, -5.79, 3.77, 13.08,
 0.48,0.19,0.82, -4.27, 3.60, 13.36,
 0.46,0.17,0.80, -3.21, 4.21, 12.20,
 0.42,0.16,0.81, -1.76, 3.68, 11.76,
 0.44,0.17,0.81, -0.70, 5.08, 11.33,
 0.46,0.17,0.80, -1.02, 6.03, 11.04,
 0.44,0.17,0.81, -1.33, 5.24, 10.93,
 0.40,0.17,0.81, -1.18, 4.81, 8.44,
 0.45,0.18,0.83, -0.81, 4.84, 10.78,
 0.45,0.19,0.81, -1.42, 5.83, 8.92,
 0.47,0.20,0.81, -1.37, 6.32, 11.27,
 0.45,0.18,0.83, -0.52, 5.34, 12.00,
 0.46,0.19,0.81, -0.96, 5.13, 12.67,
 0.44,0.18,0.83, -0.23, 4.61, 12.53,
 0.45,0.18,0.82, -0.67, 4.58, 12.18,
 0.45,0.17,0.81, -0.17, 6.76, 11.24,
 0.41,0.18,0.82, -0.67, 5.21, 9.97,
 0.43,0.18,0.83, -0.38, 4.31, 11.33,
 0.42,0.17,0.82, -0.31, 4.35, 9.98,
 0.43,0.18,0.83, -1.28, 3.73, 9.71,
 0.44,0.17,0.83, -1.76, 3.68, 8.32,
 0.44,0.18,0.85, -2.47, 3.71, 7.83,
 0.44,0.19,0.84, -2.49, 2.76, 7.59,
 0.45,0.17,0.83, -1.77, 3.28, 7.98,
 0.49,0.20,0.83, -2.85, 4.35, 8.55,
 0.46,0.19,0.83, -2.18, 4.70, 8.38,
 0.46,0.18,0.85, -2.06, 5.04, 9.51,
 0.46,0.19,0.83, -1.57, 5.94, 9.59,
 0.45,0.17,0.84, -1.56, 6.92, 10.23,
 0.45,0.19,0.84, -2.18, 7.95, 10.06,
 0.43,0.18,0.84, -2.26, 7.63, 9.54,
 0.43,0.17,0.83, -2.46, 8.18, 8.50,
 0.43,0.18,0.83, -2.73, 8.08, 7.57,
 0.40,0.17,0.84, -2.12, 6.63, 7.51,
 0.40,0.16,0.83, -1.95, 5.91, 7.63,
 0.42,0.18,0.83, -1.77, 5.51, 8.53,
 0.40,0.17,0.84, -2.21, 3.66, 8.63,
 0.43,0.18,0.83, -1.95, 3.83, 9.08,
 0.41,0.18,0.84, -1.76, 2.38, 9.30,
 0.41,0.18,0.84, -0.87, 2.47, 10.14,
 0.44,0.17,0.83, -0.70, 3.59, 9.74,
 0.43,0.18,0.84, -1.27, 4.34, 8.87,
 0.45,0.19,0.84, -1.69, 6.15, 7.76,
 0.44,0.17,0.86, -0.92, 7.08, 7.56,
 0.44,0.18,0.85, -0.64, 7.73, 6.49,
 0.47,0.17,0.84, -1.15, 9.36, 7.10,
 0.44,0.19,0.86, -2.43, 9.33, 4.53,
 0.44,0.19,0.86, -1.53, 9.07, 4.99,
 0.43,0.16,0.86, -2.18, 8.53, 5.13,
 0.44,0.19,0.85, -3.16, 7.59, 5.24,
 0.43,0.18,0.85, -3.39, 6.34, 5.04,
 0.44,0.19,0.85, -4.03, 5.22, 5.15,
 0.44,0.18,0.85, -3.92, 5.24, 6.47,
 0.44,0.16,0.82, -4.02, 4.41, 5.01,
 0.46,0.17,0.83, -4.02, 5.30, 5.22,
 0.46,0.19,0.86, -3.63, 5.63, 5.34,
 0.46,0.17,0.83, -3.69, 6.60, 5.01,
 0.43,0.17,0.84, -3.71, 6.46, 4.82,
 0.45,0.18,0.83, -4.24, 5.27, 6.03,
 0.45,0.18,0.83, -3.76, 6.90, 5.25,
 0.45,0.18,0.84, -4.41, 6.49, 5.91,
 0.47,0.18,0.82, -4.34, 6.34, 7.37,
 0.45,0.18,0.83, -3.28, 5.27, 7.91,
 0.48,0.19,0.81, -2.50, 5.98, 10.46,
 0.43,0.16,0.84, -3.97, 3.63, 10.15,
 0.47,0.19,0.80, -1.37, 5.21, 10.85,
 0.44,0.18,0.80, -0.90, 7.62, 9.95,
 0.46,0.17,0.80, -0.75, 8.66, 9.92,
 0.45,0.16,0.81, 0.18, 9.27, 8.61,
 0.44,0.17,0.81, -0.37, 8.92, 7.08,
 0.44,0.17,0.83, -0.38, 8.52, 7.44,
 0.45,0.18,0.83, -1.22, 9.19, 7.07,
 0.45,0.19,0.84, -2.49, 7.21, 7.74,
 0.43,0.19,0.83, -3.22, 5.71, 6.95,
 0.43,0.18,0.83, -2.75, 4.67, 8.02,
 0.43,0.16,0.82, -2.76, 3.71, 9.19,
 0.43,0.18,0.80, -3.82, 2.93, 8.02,
 0.39,0.16,0.81, -2.20, 0.31, 9.15,
 0.43,0.17,0.80, -2.81, 1.92, 7.77,
 0.39,0.16,0.79, -2.79, 1.56, 7.56,
 0.40,0.16,0.79, -1.63, -0.14, 7.80,
 0.39,0.18,0.81, -2.50, 0.23, 6.00,
 0.41,0.18,0.80, -2.63, -0.64, 6.64,
 0.42,0.17,0.82, -2.63, -0.41, 5.86,
 0.42,0.19,0.83, -3.73, -4.40, 5.85,
 0.44,0.17,0.82, -1.65, -2.08, 7.07,
 0.44,0.17,0.83, -0.92, -2.69, 8.12,
 0.44,0.18,0.85, 0.02, -4.08, 8.84,
 0.44,0.16,0.84, 2.90, -4.20, 10.20,
 0.45,0.15,0.84, 4.67, -2.53, 9.92,
 0.45,0.17,0.84, 3.86, -1.65, 9.73,
 0.43,0.16,0.85, 3.94, -1.05, 7.98,
 0.45,0.18,0.86, 2.61, -0.67, 7.34,
 0.45,0.18,0.86, 1.36, 1.34, 6.27,
 0.41,0.18,0.88, -0.31, -0.46, 5.33,
 0.46,0.16,0.86, -0.52, 2.14, 6.21,
 0.45,0.19,0.88, -2.99, 1.05, 3.89,
 0.48,0.19,0.84, -2.99, 0.11, 6.31,
 0.43,0.17,0.86, -2.98, -1.39, 6.41,
 0.45,0.19,0.83, -2.21, -1.45, 6.89,
 0.46,0.16,0.86, -2.41, -2.92, 8.73,
 0.45,0.16,0.83, -1.69, -2.26, 7.53,
 0.47,0.17,0.85, -1.85, -1.97, 8.67,
 0.48,0.18,0.84, -1.83, -1.77, 7.42,
 0.48,0.20,0.85, -1.30, -0.41, 7.91,
 0.48,0.19,0.85, -1.83, 0.90, 6.84,
 0.50,0.19,0.84, -1.63, 2.31, 6.63,
 0.50,0.20,0.84, -2.03, 2.66, 7.07,
 0.45,0.19,0.86, -1.66, 3.10, 7.82,
 0.49,0.18,0.85, -1.73, 4.49, 8.82,
 0.46,0.19,0.84, -2.67, 3.36, 6.69,
 0.47,0.20,0.84, -2.29, 4.55, 8.78,
 0.46,0.16,0.83, -1.74, 3.15, 8.93,
 0.44,0.18,0.83, -2.12, 2.61, 8.29,
 0.46,0.17,0.84, -2.89, 2.17, 8.72,
 0.44,0.17,0.83, -2.56, 2.35, 8.23,
 0.47,0.19,0.83, -4.05, 2.32, 9.07,
 0.45,0.18,0.82, -3.44, 2.38, 7.69,
 0.45,0.15,0.83, -3.59, 1.45, 10.37,
 0.46,0.18,0.81, -2.50, 2.27, 8.60,
 0.46,0.18,0.83, -2.79, 1.62, 9.31,
 0.46,0.17,0.83, -1.42, 2.50, 9.05,
 0.45,0.17,0.84, -1.65, 2.60, 8.78,
 0.49,0.17,0.82, -0.72, 3.91, 9.51,
 0.48,0.20,0.82, -1.33, 3.97, 9.31,
 0.50,0.20,0.82, -1.47, 4.70, 10.09,
 0.45,0.18,0.83, 0.32, 4.24, 10.29,
 0.47,0.18,0.83, 0.38, 4.61, 12.43,
 0.48,0.17,0.83, 0.41, 6.46, 12.99,
 0.47,0.16,0.83, 0.64, 6.69, 13.13,
 0.45,0.16,0.82, 1.02, 6.24, 12.82,
 0.44,0.18,0.82, 1.16, 4.85, 12.69,
 0.46,0.17,0.81, 1.85, 5.16, 13.22,
 0.43,0.16,0.83, 1.11, 4.26, 12.12,
 0.45,0.17,0.82, 1.10, 4.58, 13.01,
 0.44,0.16,0.82, 0.55, 4.20, 12.31,
 0.46,0.17,0.81, 0.78, 4.43, 13.45,
 0.45,0.17,0.81, 1.02, 4.02, 13.04,
 0.46,0.16,0.80, 1.34, 4.89, 13.37,
 0.45,0.16,0.82, 1.95, 5.94, 12.14,
 0.45,0.17,0.81, 1.62, 6.37, 11.79,
 0.43,0.17,0.83, 1.34, 5.05, 11.10,
 0.44,0.17,0.82, 1.82, 4.63, 12.08,
 0.43,0.16,0.83, 2.23, 3.13, 12.06,
 0.44,0.16,0.82, 2.31, 1.76, 12.14,
 0.46,0.16,0.82, 2.75, 0.81, 12.99,
 0.47,0.16,0.83, 3.24, 0.90, 13.19,
 0.47,0.18,0.83, 4.70, 1.53, 14.84,
 0.46,0.18,0.83, 3.80, 1.88, 15.31,
 0.45,0.17,0.84, 2.87, 2.79, 14.50,
 0.46,0.18,0.84, 3.13, 4.26, 14.41,
 0.43,0.17,0.85, 2.55, 5.53, 11.80,
 0.45,0.19,0.84, 3.04, 7.94, 12.49,
 0.45,0.16,0.83, 2.52, 9.22, 10.75,
 0.43,0.18,0.84, 2.52, 9.08, 11.28,
 0.43,0.17,0.84, 1.88, 8.50, 10.34,
 0.44,0.16,0.83, 1.91, 7.98, 10.43,
 0.42,0.17,0.84, 1.24, 6.72, 8.93,
 0.43,0.17,0.83, 0.26, 5.88, 8.05,
 0.44,0.18,0.84, 0.37, 4.14, 8.27,
 0.44,0.18,0.84, 0.56, 3.04, 9.24,
 0.47,0.17,0.81, 0.90, 3.13, 11.10,
 0.45,0.18,0.83, 1.15, 1.31, 12.12,
 0.48,0.16,0.81, 1.92, 2.75, 13.89,
 0.46,0.17,0.82, 2.27, 3.65, 13.54,
 0.45,0.16,0.82, 2.95, 5.05, 12.60,
 0.43,0.17,0.82, 3.19, 6.08, 11.15,
 0.44,0.17,0.83, 3.24, 7.22, 10.24,
 0.42,0.17,0.84, 2.90, 7.60, 8.90,
 0.41,0.16,0.83, 2.53, 6.96, 7.05,
 0.43,0.17,0.84, 1.97, 6.61, 6.89,
 0.43,0.18,0.85, 0.67, 4.78, 5.89,
 0.43,0.19,0.85, 0.43, 3.63, 6.32,
 0.43,0.19,0.86, 0.66, 2.17, 7.92,
 0.44,0.18,0.84, -1.21, 0.95, 7.59,
 0.45,0.19,0.84, -0.26, 1.05, 8.72,
 0.45,0.17,0.83, -0.40, 1.47, 8.09,
 0.44,0.18,0.84, 0.11, 1.37, 9.13,
 0.45,0.18,0.82, 0.41, 2.09, 9.37,
 0.44,0.17,0.81, 0.41, 1.45, 9.15,
 0.43,0.18,0.84, 0.95, 0.81, 8.11,
 0.46,0.17,0.84, 1.59, 4.50, 7.50,
 0.46,0.18,0.84, 1.54, 5.15, 7.39,
 0.45,0.18,0.83, 0.87, 5.62, 7.31,
 0.45,0.19,0.84, 0.44, 5.07, 7.86,
 0.43,0.19,0.83, 0.66, 3.47, 7.80,
 0.47,0.18,0.82, 1.44, 4.93, 10.05,
 0.43,0.17,0.81, 2.56, 4.78, 7.88,
 0.36,0.21,0.80, -4.20, -3.45, 12.99,
 0.45,0.16,0.87, -2.98, 3.40, 12.11,
 0.43,0.19,0.84, 3.05, 3.47, 7.68,
 0.42,0.17,0.81, -0.85, -0.58, 9.97,
 0.46,0.16,0.85, 0.99, 5.77, 7.42,
 0.45,0.19,0.83, 0.95, 3.80, 10.23,
 0.46,0.16,0.82, 0.93, 5.62, 9.45,
 0.46,0.18,0.84, 2.66, 4.43, 9.68,
 0.45,0.18,0.82, 2.31, 4.79, 9.79,
 0.47,0.17,0.81, 1.89, 6.81, 10.72,
 0.45,0.18,0.83, 1.71, 6.85, 9.80,
 0.45,0.18,0.82, 2.08, 7.92, 9.63,
 0.45,0.18,0.83, 1.71, 8.44, 9.31,
 0.46,0.18,0.83, 1.82, 8.75, 9.89,
 0.46,0.19,0.84, 2.14, 8.81, 10.43,
 0.45,0.18,0.82, 3.11, 8.24, 11.48,
 0.46,0.17,0.82, 4.47, 7.51, 12.53,
 0.47,0.18,0.82, 5.25, 7.95, 13.82,
 0.47,0.17,0.82, 4.60, 7.19, 14.00,
 0.43,0.18,0.81, 4.17, 4.72, 15.08,