accl_x,accl_y,accl_z,gyro_x,gyro_y,gyro_z
 0.45,0.08,0.80, -13.85, 21.47, -5.80,
 0.45,0.07,0.77, -12.43, 26.23, -6.84,
 0.45,0.08,0.76, -10.27, 31.62, -7.22,
 0.42,0.08,0.76, -2.60, 40.06, -5.73,
 0.38,0.09,0.79, 3.48, 34.56, -4.26,
 0.36,0.11,0.83, 6.17, 19.97, -3.25,
 0.37,0.12,0.86, 5.74, 7.53, 0.84,
 0.39,0.12,0.88, 4.49, 2.46, 3.98,
 0.39,0.13,0.89, 3.54, 2.90, 3.57,
 0.38,0.14,0.91, 2.06, 5.05, 0.26,
 0.38,0.14,0.92, -0.32, 5.91, -2.56,
 0.38,0.15,0.91, -3.19, 6.44, -3.74,
 0.40,0.13,0.89, -5.62, 7.19, -3.97,
 0.41,0.12,0.88, -7.40, 7.88, -3.73,
 0.41,0.12,0.88, -9.11, 8.96, -4.40,
 0.41,0.11,0.85, -13.08, 7.57, -7.59,
 0.42,0.10,0.86, -13.63, 9.44, -5.16,
 0.41,0.10,0.84, -11.13, 11.65, -4.09,
 0.39,0.12,0.83, -7.53, 11.63, -2.27,
 0.37,0.11,0.85, -5.69, 9.47, 0.18,
 0.37,0.10,0.86, -5.15, 6.89, -1.51,
 0.38,0.15,0.88, -5.74, 3.86, 4.64,
 0.38,0.16,0.89, -6.66, -0.41, 10.47,
 0.40,0.13,0.91, -7.50, -4.37, 13.01,
 0.38,0.12,0.90, -8.70, -7.51, 12.17,
 0.37,0.16,0.89, -10.09, -10.31, 13.77,
 0.36,0.12,0.88, -10.90, -12.58, 10.08,
 0.38,0.13,0.85, -9.34, -11.59, 8.78,
 0.40,0.11,0.82, -6.99, -9.31, 9.50,
 0.45,0.08,0.81, -5.01, -4.06, 11.60,
 0.44,0.06,0.78, -3.89, -0.12, 13.07,
 0.40,0.08,0.81, -2.58, -4.40, 12.09,
 0.39,0.10,0.84, -2.38, -12.32, 10.98,
 0.37,0.10,0.86, -1.76, -16.89, 6.08,
 0.37,0.12,0.88, -1.63, -13.22, 0.61,
 0.39,0.13,0.87, -1.27, -2.24, -3.94,
 0.43,0.09,0.86, -0.11, 9.36, -7.16,
 0.45,0.10,0.86, -1.27, 15.08, -8.73,
 0.47,0.14,0.88, -5.54, 14.55, -8.98,
 0.45,0.13,0.92, -9.74, 10.63, -9.27,
 0.43,0.13,0.91, -12.85, 6.99, -10.03,
 0.40,0.13,0.88, -14.08, 4.90, -11.27,
 0.38,0.12,0.85, -13.53, 4.53, -12.82,
 0.38,0.10,0.83, -12.06, 4.44, -15.13,
 0.38,0.10,0.84, -11.65, 3.79, -17.56,
 0.40,0.09,0.84, -9.77, 3.15, -16.26,
 0.40,0.10,0.84, -7.24, 2.32, -12.52,
 0.39,0.09,0.84, -5.50, 1.39, -9.30,
 0.39,0.09,0.84, -4.08, 2.15, -7.56,
 0.40,0.09,0.85, -2.82, 3.95, -6.63,
 0.41,0.10,0.85, -2.82, 4.95, -5.08,
 0.40,0.10,0.86, -3.33, 4.06, -2.84,
 0.39,0.11,0.87, -3.66, 0.87, 0.63,
 0.39,0.12,0.87, -4.52, -4.15, 3.13,
 0.39,0.13,0.89, -7.07, -9.69, 4.99,
 0.40,0.12,0.89, -10.17, -12.09, 5.89,
 0.41,0.11,0.89, -11.33, -11.60, 3.82,
 0.40,0.11,0.88, -13.30, -11.08, -2.21,
 0.42,0.11,0.85, -11.36, -4.81, -3.15,
 0.42,0.10,0.83, -9.69, 1.91, -6.06,
 0.42,0.10,0.84, -8.70, 4.81, -9.68,
 0.41,0.10,0.85, -7.50, 5.62, -10.69,
 0.40,0.10,0.84, -5.92, 3.98, -9.44,
 0.40,0.11,0.85, -5.07, 2.46, -7.30,
 0.39,0.11,0.85, -5.16, 1.73, -6.02,
 0.40,0.11,0.86, -4.75, 1.68, -6.50,
 0.40,0.12,0.86, -3.98, 2.64, -7.08,
 0.40,0.11,0.84, -3.31, 4.79, -6.89,
 0.38,0.10,0.84, -2.44, 6.06, -6.82,
 0.39,0.10,0.85, -2.79, 5.11, -6.00,
 0.39,0.10,0.85, -2.96, 2.53, -5.40,
 0.39,0.11,0.85, -2.96, -0.24, -5.21,
 0.40,0.10,0.86, -2.47, -0.89, -5.88,
 0.40,0.11,0.86, -1.94, 0.18, -7.98,
 0.40,0.10,0.84, -0.49, 3.89, -8.06,
 0.40,0.10,0.83, 1.25, 7.45, -8.05,
 0.40,0.11,0.83, 2.15, 8.60, -8.82,
 0.41,0.11,0.85, 2.15, 7.50, -9.30,
 0.41,0.11,0.86, 1.22, 2.90, -7.27,
 0.42,0.12,0.88, -0.70, -2.09, -2.37,
 0.41,0.13,0.88, -2.82, -6.37, 1.54,
 0.40,0.13,0.88, -4.26, -8.31, 2.84,
 0.39,0.14,0.89, -5.98, -7.92, 2.41,
 0.40,0.13,0.89, -6.47, -6.61, 1.89,
 0.39,0.13,0.88, -6.11, -4.67, 0.73,
 0.40,0.13,0.87, -5.51, -1.31, -0.96,
 0.41,0.13,0.86, -5.24, 1.13, -2.24,
 0.42,0.12,0.85, -5.01, 1.92, -3.34,
 0.42,0.13,0.87, -4.79, 0.84, -4.15,
 0.42,0.13,0.87, -4.34, -0.23, -3.73,
 0.42,0.12,0.87, -3.66, 0.18, -3.28,
 0.42,0.12,0.87, -3.53, 1.79, -4.15,
 0.42,0.13,0.87, -3.24, 4.34, -4.61,
 0.41,0.12,0.86, -2.53, 6.70, -5.57,
 0.41,0.11,0.85, -2.14, 7.73, -5.79,
 0.40,0.11,0.86, -2.69, 7.33, -5.19,
 0.41,0.12,0.86, -3.27, 5.66, -3.88,
 0.41,0.13,0.87, -4.14, 2.89, -2.23,
 0.41,0.13,0.87, -4.24, 0.52, -0.72,
 0.40,0.13,0.86, -4.66, -0.24, -0.03,
 0.41,0.13,0.86, -5.82, 0.12, -0.40,
 0.41,0.13,0.87, -6.73, 1.07, -1.89,
 0.41,0.13,0.87, -6.99, 2.66, -2.56,
 0.42,0.12,0.87, -7.82, 4.98, -3.21,
 0.41,0.12,0.85, -8.09, 6.69, -3.88,
 0.40,0.12,0.84, -7.37, 6.93, -3.65,
 0.38,0.11,0.85, -6.35, 2.76, -2.85,
 0.42,0.11,0.86, -7.36, 4.38, -2.76,
 0.40,0.11,0.85, -6.29, 2.31, -1.34,
 0.39,0.11,0.84, -5.21, 1.24, -0.56,
 0.40,0.11,0.84, -4.76, 1.56, -0.23,
 0.39,0.11,0.84, -4.76, 0.29, -0.53,
 0.39,0.11,0.85, -5.02, -1.62, -2.70,
 0.41,0.12,0.86, -6.09, -2.55, -5.48,
 0.40,0.12,0.87, -6.23, -3.57, -9.22,
 0.38,0.11,0.85, -6.73, -7.19, -14.67,
 0.44,0.12,0.85, -6.46, -4.58, -16.21,
 0.39,0.11,0.83, -4.75, -1.48, -13.15,
 0.40,0.12,0.84, -2.92, -3.08, -12.05,
 0.42,0.13,0.86, -3.10, -1.57, -12.79,
 0.41,0.12,0.86, -2.79, -2.90, -11.73,
 0.42,0.12,0.85, -2.17, -1.15, -10.03,
 0.42,0.13,0.86, -2.85, 4.32, -9.30,
 0.42,0.12,0.85, -2.70, 8.55, -9.69,
 0.41,0.12,0.85, -1.66, 11.24, -9.11,
 0.41,0.12,0.85, -1.39, 10.38, -8.14,
 0.40,0.12,0.86, -1.98, 5.80, -6.98,
 0.39,0.12,0.85, -1.73, -1.04, -4.06,
 0.39,0.12,0.85, -2.21, -5.57, -2.95,
 0.40,0.12,0.85, -2.78, -7.83, -2.47,
 0.40,0.12,0.85, -3.68, -4.93, -1.98,
 0.40,0.13,0.86, -3.95, -1.63, -2.27,
 0.40,0.14,0.86, -4.03, 0.66, -2.90,
 0.40,0.14,0.87, -4.72, 1.97, -3.89,
 0.40,0.13,0.87, -4.99, 2.67, -4.64,
 0.40,0.14,0.85, -5.37, 2.82, -4.32,
 0.40,0.14,0.86, -5.68, 2.43, -3.37,
 0.39,0.14,0.87, -6.03, 1.91, -2.87,
 0.39,0.13,0.86, -5.76, 0.52, -5.13,
 0.40,0.13,0.86, -5.77, 0.41, -7.19,
 0.39,0.13,0.86, -5.37, 0.64, -8.21,
 0.38,0.13,0.84, -4.81, 1.47, -10.55,
 0.39,0.13,0.86, -3.11, 2.05, -12.81,
 0.41,0.14,0.86, -3.50, 2.82, -10.82,
 0.41,0.13,0.87, -3.73, 4.03, -9.39,
 0.41,0.13,0.86, -4.60, 6.35, -7.62,
 0.42,0.14,0.86, -5.04, 8.72, -5.30,
 0.42,0.13,0.86, -5.73, 10.31, -2.52,
 0.41,0.13,0.87, -7.47, 10.20, 0.20,
 0.41,0.13,0.86, -8.79, 9.97, 1.33,
 0.39,0.14,0.86, -10.21, 8.14, -2.78,
 0.37,0.13,0.88, -12.27, 6.61, -10.47,
 0.37,0.13,0.87, -14.00, 6.78, -14.18,
 0.39,0.14,0.86, -15.86, 9.79, -12.24,
 0.38,0.13,0.87, -17.77, 9.05, -11.28,
 0.40,0.13,0.88, -20.11, 6.50, -8.67,
 0.40,0.12,0.88, -21.04, 4.11, -4.79,
 0.39,0.11,0.85, -20.89, 1.74, -2.67,
 0.39,0.11,0.85, -19.59, -0.87, -1.77,
 0.37,0.11,0.84, -17.62, -4.90, -1.24,
 0.38,0.11,0.83, -14.93, -7.07, -0.44,
 0.39,0.11,0.84, -13.88, -9.71, -0.23,
 0.42,0.11,0.86, -14.38, -10.23, 1.45,
 0.43,0.13,0.88, -17.08, -10.49, 2.72,
 0.43,0.12,0.89, -19.34, -11.10, 4.69,
 0.44,0.12,0.90, -21.19, -9.18, 6.41,
 0.43,0.13,0.89, -22.78, -6.53, 6.49,
 0.41,0.12,0.88, -23.13, -3.79, 6.20,
 0.41,0.12,0.88, -22.60, -1.30, 6.20,
 0.41,0.11,0.86, -21.36, -0.14, 5.65,
 0.40,0.10,0.85, -18.98, -0.18, 4.43,
 0.40,0.11,0.86, -17.31, -2.85, 3.59,
 0.41,0.10,0.85, -16.64, -4.08, 4.05,
 0.40,0.09,0.86, -16.02, -4.11, 4.00,
 0.41,0.10,0.86, -15.08, -3.08, 3.65,
 0.42,0.09,0.85, -14.12, -0.70, 3.82,
 0.42,0.09,0.85, -13.10, 1.47, 3.56,
 0.42,0.08,0.85, -10.58, 3.05, 2.60,
 0.42,0.08,0.83, -6.89, 3.39, 2.56,
 0.42,0.08,0.84, -5.45, 3.02, 3.04,
 0.43,0.08,0.85, -6.09, 3.16, 4.18,
 0.42,0.08,0.85, -6.84, 2.61, 5.98,
 0.42,0.08,0.85, -5.83, 3.39, 8.31,
 0.41,0.08,0.85, -5.01, 4.09, 9.59,
 0.41,0.08,0.85, -4.72, 4.00, 10.46,
 0.40,0.08,0.85, -5.25, 3.08, 10.90,
 0.38,0.09,0.86, -6.12, 2.11, 9.36,
 0.38,0.08,0.86, -6.60, 1.30, 7.77,
 0.39,0.09,0.86, -7.77, 1.59, 7.19,
 0.39,0.09,0.87, -9.45, 2.43, 6.00,
 0.37,0.09,0.87, -12.15, 2.47, 5.02,
 0.38,0.09,0.87, -12.79, 1.40, 2.69,
 0.39,0.10,0.87, -12.95, -0.78, 1.42,
 0.41,0.09,0.86, -12.37, -0.69, 1.89,
 0.42,0.08,0.85, -12.09, 0.95, 2.44,
 0.42,0.08,0.85, -12.40, 5.73, 2.93,
 0.43,0.07,0.85, -11.91, 10.67, 2.29,
 0.42,0.07,0.83, -10.40, 16.35, 2.67,
 0.40,0.07,0.84, -8.95, 18.99, 3.11,
 0.39,0.06,0.83, -7.85, 19.65, 1.92,
 0.40,0.07,0.83, -6.06, 18.78, 0.66,
 0.39,0.07,0.83, -3.74, 18.21, 0.35,
 0.37,0.05,0.82, -1.63, 16.17, -1.05,
 0.38,0.06,0.83, 0.69, 14.06, -1.86,
 0.38,0.07,0.83, 1.80, 10.70, -1.92,
 0.39,0.07,0.85, 1.91, 6.53, -1.45,
 0.38,0.08,0.86, 0.93, 2.85, -1.73,
 0.39,0.09,0.85, 0.49, 0.21, -1.39,
 0.38,0.09,0.88, -1.01, -1.77, -1.66,
 0.40,0.10,0.90, -4.31, -1.94, -1.33,
 0.41,0.10,0.90, -6.49, -1.22, -0.18,
 0.41,0.11,0.91, -7.86, 0.14, 0.98,
 0.39,0.10,0.89, -8.78, 2.09, 1.39,
 0.40,0.10,0.88, -9.02, 4.63, 1.31,
 0.40,0.08,0.88, -8.34, 7.11, 0.75,
 0.40,0.08,0.86, -7.11, 8.20, 0.37,
 0.40,0.08,0.85, -4.02, 11.08, 0.60,
 0.40,0.08,0.84, -1.39, 14.58, 0.18,
 0.41,0.07,0.83, 1.62, 17.60, -0.76,
 0.40,0.07,0.82, 5.10, 20.47, -1.54,
 0.40,0.07,0.84, 8.85, 20.11, -1.62,
 0.39,0.07,0.84, 10.61, 16.99, -0.73,
 0.37,0.07,0.84, 9.76, 13.77, 0.61,
 0.38,0.09,0.87, 6.78, 11.19, -0.26,
 0.38,0.11,0.91, 2.40, 7.02, 1.53,
 0.39,0.10,0.91, -0.50, 3.65, 2.53,
 0.39,0.11,0.91, -2.75, 4.08, 3.63,
 0.39,0.11,0.91, -4.49, 6.21, 4.50,
 0.38,0.09,0.90, -5.53, 7.86, 4.56,
 0.37,0.09,0.89, -5.66, 7.51, 4.32,
 0.37,0.09,0.88, -5.73, 6.15, 3.88,
 0.39,0.09,0.87, -4.84, 6.02, 4.11,
 0.39,0.09,0.87, -3.33, 6.81, 4.03,
 0.38,0.09,0.87, -2.40, 8.05, 3.79,
 0.38,0.08,0.86, -0.63, 9.73, 3.66,
 0.38,0.08,0.86, 1.66, 10.38, 3.15,
 0.37,0.09,0.84, 4.96, 12.44, 2.63,
 0.35,0.09,0.83, 8.12, 12.17, 2.92,
 0.36,0.07,0.84, 10.58, 12.93, 1.56,
 0.36,0.09,0.87, 11.65, 10.67, 1.04,
 0.36,0.09,0.87, 12.27, 8.75, 0.46,
 0.36,0.09,0.88, 12.17, 8.17, -0.29,
 0.34,0.10,0.87, 12.26, 6.00, 0.67,
 0.35,0.09,0.87, 11.34, 5.50, -1.71,
 0.36,0.11,0.89, 11.60, 5.31, -3.57,
 0.38,0.11,0.90, 10.47, 5.69, -4.26,
 0.38,0.12,0.91, 8.08, 6.50, -4.02,
 0.37,0.13,0.90, 5.22, 7.50, -2.67,
 0.37,0.10,0.88, 3.69, 7.54, -4.34,
 0.37,0.13,0.89, 4.11, 7.01, -4.64,
 0.38,0.12,0.87, 4.06, 6.14, -4.24,
 0.38,0.12,0.90, 3.48, 6.61, -3.11,
 0.38,0.12,0.89, 1.95, 7.21, -1.51,
 0.38,0.12,0.90, -0.37, 7.73, 0.05,
 0.37,0.12,0.90, -1.95, 7.60, 1.10,
 0.38,0.12,0.89, -2.49, 6.63, 1.42,
 0.39,0.13,0.88, -1.89, 5.13, 1.63,
 0.36,0.12,0.86, 0.72, 3.42, 2.61,
 0.38,0.11,0.87, 3.30, 3.68, 2.92,
 0.36,0.12,0.87, 4.75, 3.88, 2.70,
 0.36,0.12,0.87, 6.69, 4.34, 2.24,
 0.35,0.11,0.88, 7.22, 2.99, 1.77,
 0.36,0.12,0.88, 6.89, 2.08, 1.51,
 0.35,0.12,0.89, 6.03, 1.40, 0.98,
 0.36,0.12,0.89, 5.68, 0.79, 0.82,
 0.35,0.13,0.89, 5.56, -0.37, 0.81,
 0.35,0.11,0.89, 5.36, -0.61, -1.31,
 0.35,0.12,0.89, 3.68, 0.55, -2.20,
 0.36,0.13,0.90, 0.98, 2.29, -2.64,
 0.36,0.13,0.90, -1.54, 3.86, -2.55,
 0.36,0.12,0.90, -3.07, 5.98, -2.61,
 0.35,0.13,0.89, -4.18, 6.31, -2.78,
 0.34,0.12,0.89, -5.33, 5.22, -2.93,
 0.34,0.12,0.88, -6.00, 3.89, -3.27,
 0.36,0.13,0.88, -6.60, 5.73, -2.70,
 0.35,0.13,0.88, -6.69, 4.32, -3.22,
 0.35,0.12,0.87, -6.00, 4.20, -3.36,
 0.35,0.13,0.87, -4.78, 4.29, -2.92,
 0.37,0.13,0.85, -4.46, 4.81, -1.73,
 0.35,0.11,0.86, -3.57, 2.64, -1.91,
 0.36,0.12,0.87, -2.02, 0.84, -2.93,
 0.36,0.13,0.88, -1.37, 0.52, -2.23,
 0.37,0.12,0.88, -1.83, 1.48, -1.73,
 0.36,0.12,0.89, -2.08, 1.83, -1.60,
 0.36,0.12,0.87, -1.62, 1.80, -1.74,
 0.35,0.13,0.88, -1.82, 1.34, -1.85,
 0.35,0.13,0.87, -2.66, 1.37, -1.97,
 0.37,0.14,0.89, -3.16, 1.28, -2.00,
 0.37,0.15,0.90, -4.34, 1.59, -1.33,
 0.37,0.14,0.91, -5.65, 1.91, -1.04,
 0.36,0.14,0.91, -6.73, 2.35, -1.21,
 0.36,0.14,0.89, -6.53, 2.76, -1.85,
 0.36,0.13,0.88, -5.94, 2.82, -2.55,
 0.36,0.12,0.86, -5.50, 3.07, -2.89,
 0.37,0.12,0.84, -4.43, 3.30, -3.25,
 0.37,0.11,0.86, -3.69, 4.20, -3.34,
 0.37,0.12,0.86, -3.34, 4.72, -2.98,
 0.37,0.12,0.86, -2.99, 4.90, -2.56,
 0.37,0.12,0.86, -3.19, 4.84, -2.12,
 0.36,0.12,0.86, -3.22, 4.43, -1.94,
 0.35,0.12,0.85, -2.90, 3.33, -1.73,
 0.36,0.12,0.88, -1.51, 2.61, -1.85,
 0.36,0.13,0.87, -1.11, 2.09, -0.90,
 0.36,0.13,0.88, -2.15, 1.86, -0.05,
 0.36,0.13,0.89, -3.53, 0.99, 0.66,
 0.35,0.13,0.88, -4.11, 0.47, 1.28,
 0.36,0.13,0.88, -4.09, 0.23, 1.60,
 0.37,0.12,0.87, -3.77, -0.03, 1.92,
 0.36,0.12,0.86, -3.63, 0.26, 1.85,
 0.36,0.13,0.87, -3.71, 0.43, 0.96,
 0.35,0.13,0.87, -3.37, 0.81, -0.60,
 0.34,0.13,0.88, -2.61, 0.75, -2.11,
 0.34,0.13,0.87, -1.73, 1.08, -3.44,
 0.35,0.13,0.86, -1.33, 0.82, -4.15,
 0.35,0.13,0.87, -0.72, -0.17, -4.18,
 0.36,0.14,0.87, -0.53, 0.29, -3.37,
 0.36,0.14,0.88, -0.09, -1.24, -4.17,
 0.35,0.12,0.86, -0.12, 0.06, -3.33,
 0.34,0.13,0.87, 0.73, -0.02, -5.31,
 0.36,0.15,0.88, -0.72, 1.79, -4.58,
 0.37,0.14,0.91, -3.62, 5.19, -3.48,
 0.36,0.14,0.90, -5.86, 7.21, -2.23,
 0.34,0.14,0.89, -6.75, 6.40, -2.06,
 0.34,0.13,0.88, -6.64, 4.81, -2.21,
 0.34,0.13,0.87, -6.63, 3.02, -1.80,
 0.35,0.14,0.86, -7.04, 2.03, -1.31,
 0.35,0.13,0.87, -6.46, 2.37, -1.50,
 0.35,0.12,0.87, -5.48, 2.82, -1.57,
 0.35,0.13,0.87, -4.52, 3.27, -2.00,
 0.35,0.13,0.87, -3.68, 2.63, -2.38,
 0.36,0.13,0.87, -3.22, 1.56, -2.23,
 0.35,0.13,0.87, -2.40, 0.53, -1.77,
 0.36,0.13,0.88, -1.74, 0.27, -1.66,
 0.37,0.13,0.87, -1.24, 0.58, -1.47,
 0.37,0.13,0.88, -0.98, 0.73, -1.65,
 0.36,0.14,0.88, -1.68, 0.34, -2.02,
 0.36,0.14,0.89, -2.78, 0.09, -2.46,
 0.36,0.14,0.90, -4.67, 0.61, -2.27,
 0.37,0.14,0.89, -6.08, 1.39, -2.35,
 0.37,0.14,0.88, -6.14, 2.53, -2.15,
 0.36,0.14,0.86, -5.37, 2.24, -2.23,
 0.36,0.13,0.87, -4.87, 1.80, -2.17,
 0.36,0.12,0.86, -4.26, 1.83, -2.09,
 0.36,0.13,0.86, -3.91, 1.44, -1.86,
 0.36,0.13,0.87, -3.28, 2.11, -2.00,
 0.36,0.13,0.86, -2.87, 3.02, -1.74,
 0.37,0.13,0.87, -2.09, 2.96, -1.74,
 0.36,0.13,0.86, -1.39, 3.33, -1.66,
 0.35,0.13,0.86, -0.92, 3.33, -1.51,
 0.36,0.14,0.86, -0.53, 3.11, -1.83,
 0.36,0.15,0.88, 0.09, 3.80, -1.36,
 0.35,0.14,0.89, -0.64, 2.24, -1.36,
 0.35,0.15,0.90, -1.44, 0.38, -1.19,
 0.35,0.15,0.90, -2.58, -0.78, -1.37,
 0.35,0.15,0.89, -4.18, 0.56, -1.54,
 0.35,0.15,0.90, -4.78, 2.02, -1.94,
 0.35,0.15,0.88, -4.61, 2.43, -2.09,
 0.35,0.14,0.88, -4.56, 2.50, -2.67,
 0.34,0.15,0.88, -4.70, 2.00, -2.40,
 0.34,0.14,0.88, -4.53, 1.33, -2.55,
 0.34,0.14,0.87, -3.89, 0.73, -2.37,
 0.34,0.14,0.86, -3.37, 1.07, -2.64,
 0.35,0.14,0.88, -2.72, 1.34, -2.69,
 0.35,0.14,0.86, -1.95, 1.80, -3.10,
 0.35,0.13,0.87, -1.50, 1.77, -2.85,
 0.35,0.14,0.87, -1.04, 1.40, -2.87,
 0.35,0.14,0.87, -0.15, 0.76, -3.31,
 0.35,0.14,0.87, 0.31, 1.28, -3.89,
 0.36,0.14,0.86, 0.46, 2.85, -3.89,
 0.36,0.14,0.87, 0.60, 3.48, -4.23,
 0.36,0.14,0.87, 0.79, 3.28, -4.40,
 0.36,0.14,0.87, -0.15, 2.55, -4.26,
 0.36,0.14,0.87, -1.51, 1.85, -3.60,
 0.36,0.15,0.88, -2.49, 0.49, -2.92,
 0.35,0.15,0.88, -2.69, -0.84, -2.31,
 0.35,0.15,0.88, -2.46, -2.15, -1.88,
 0.35,0.15,0.88, -2.90, -3.13, -1.63,
 0.36,0.15,0.88, -4.21, -2.76, -0.99,
 0.38,0.16,0.90, -6.06, -1.65, 0.40,
 0.37,0.16,0.89, -7.51, -0.12, 0.89,
 0.36,0.16,0.90, -7.69, 0.34, 0.92,
 0.35,0.15,0.88, -7.19, 1.10, -0.06,
 0.35,0.15,0.88, -6.66, 2.27, -0.99,
 0.35,0.15,0.87, -6.20, 3.11, -1.73,
 0.35,0.14,0.87, -5.45, 3.59, -2.38,
 0.36,0.15,0.87, -4.85, 4.26, -2.64,
 0.36,0.15,0.88, -4.26, 4.79, -2.81,
 0.35,0.15,0.86, -3.76, 4.84, -2.75,
 0.35,0.14,0.86, -2.96, 3.98, -2.66,
 0.34,0.14,0.87, -2.17, 2.66, -2.75,
 0.34,0.14,0.85, -1.62, 1.94, -2.58,
 0.35,0.14,0.86, -1.19, 1.92, -2.81,
 0.35,0.15,0.87, -1.04, 1.80, -2.44,
 0.34,0.15,0.86, -0.58, 1.27, -2.64,
 0.33,0.15,0.88, -0.24, 0.17, -3.57,
 0.34,0.15,0.87, -0.63, -0.27, -4.11,
 0.34,0.15,0.87, -0.96, 0.58, -4.38,
 0.35,0.16,0.87, -0.89, 1.51, -4.79,
 0.34,0.14,0.87, -0.70, 1.97, -4.75,
 0.34,0.16,0.87, -0.66, 0.99, -4.73,