accl_x,accl_y,accl_z,gyro_x,gyro_y,gyro_z
 0.32,0.23,0.86, -4.55, 2.03, -1.80,
 0.32,0.23,0.87, -4.58, 1.89, -1.76,
 0.32,0.23,0.86, -4.27, 1.68, -1.62,
 0.32,0.24,0.87, -4.27, 1.42, -1.54,
 0.31,0.24,0.86, -3.82, 0.76, -1.45,
 0.32,0.24,0.87, -4.15, 0.44, -1.62,
 0.33,0.24,0.87, -4.21, 0.06, -1.18,
 0.32,0.24,0.87, -4.32, -0.27, -1.11,
 0.33,0.24,0.87, -4.44, 0.14, -1.18,
 0.33,0.24,0.87, -4.72, 0.27, -1.02,
 0.34,0.23,0.87, -4.67, 0.31, -1.22,
 0.33,0.24,0.87, -4.40, 0.40, -1.01,
 0.34,0.23,0.86, -4.17, 0.52, -0.84,
 0.33,0.23,0.87, -4.15, 0.47, -0.96,
 0.33,0.23,0.86, -4.06, 0.92, -0.98,
 0.33,0.24,0.88, -3.80, 1.01, -0.92,
 0.33,0.23,0.88, -3.83, 0.95, -0.64,
 0.33,0.24,0.88, -4.27, 1.11, -1.02,
 0.34,0.24,0.88, -5.07, 1.85, -0.92,
 0.33,0.24,0.88, -5.45, 1.92, -0.56,
 0.34,0.24,0.88, -5.65, 1.74, -0.35,
 0.33,0.24,0.88, -5.91, 1.88, -0.34,
 0.33,0.24,0.88, -6.38, 1.71, -0.27,
 0.33,0.23,0.87, -5.44, 1.54, 0.29,
 0.32,0.23,0.88, -4.78, 1.44, 0.29,
 0.32,0.23,0.87, -4.64, 1.27, 0.00,
 0.31,0.24,0.88, -4.58, 1.30, -0.29,
 0.31,0.23,0.87, -4.56, 1.33, -0.78,
 0.32,0.24,0.88, -4.56, 1.16, -1.02,
 0.31,0.24,0.88, -5.05, 1.21, -1.24,
 0.31,0.24,0.88, -5.63, 0.95, -1.68,
 0.32,0.24,0.88, -6.21, 1.37, -2.26,
 0.32,0.24,0.87, -6.70, 2.08, -2.40,
 0.33,0.24,0.87, -7.27, 2.75, -2.64,
 0.33,0.23,0.88, -7.56, 3.25, -1.97,
 0.33,0.22,0.87, -8.00, 3.97, -1.56,
 0.33,0.22,0.86, -7.51, 4.23, -0.76,
 0.32,0.22,0.85, -6.75, 3.30, -0.35,
 0.31,0.22,0.85, -5.30, 2.35, 0.00,
 0.31,0.22,0.85, -3.91, 2.24, 0.26,
 0.31,0.22,0.86, -3.36, 1.45, 0.18,
 0.30,0.23,0.88, -3.45, 1.10, 0.17,
 0.31,0.24,0.87, -4.17, 1.37, -0.21,
 0.31,0.23,0.86, -4.50, 1.33, -0.85,
 0.31,0.23,0.87, -4.66, 1.63, -1.63,
 0.30,0.23,0.86, -5.31, 2.21, -2.31,
 0.31,0.24,0.87, -5.86, 2.70, -2.58,
 0.32,0.23,0.86, -5.94, 3.28, -3.02,
 0.32,0.24,0.86, -5.83, 3.74, -2.72,
 0.32,0.23,0.87, -5.45, 4.35, -2.66,
 0.32,0.23,0.86, -5.42, 4.82, -3.15,
 0.32,0.23,0.85, -5.33, 5.28, -3.33,
 0.33,0.24,0.87, -5.88, 6.43, -4.47,
 0.34,0.24,0.87, -6.87, 9.18, -5.82,
 0.35,0.24,0.88, -8.53, 12.73, -7.34,
 0.35,0.24,0.87, -10.09, 17.37, -9.50,
 0.36,0.24,0.87, -11.66, 22.35, -12.14,
 0.39,0.24,0.85, -12.66, 32.70, -16.34,
 0.40,0.25,0.87, -15.73, 40.66, -21.97,
 0.41,0.26,0.87, -19.79, 51.71, -25.01,
 0.41,0.25,0.88, -23.56, 62.24, -27.30,
 0.40,0.24,0.86, -25.65, 72.93, -29.88,
 0.38,0.24,0.85, -27.48, 80.92, -30.50,
 0.34,0.23,0.86, -27.98, 85.05, -30.63,
 0.32,0.20,0.87, -27.11, 86.44, -30.17,
 0.30,0.24,0.83, -24.47, 92.14, -30.44,
 0.28,0.23,0.86, -24.50, 88.38, -29.95,
 0.28,0.22,0.87, -23.73, 85.59, -28.44,
 0.28,0.22,0.88, -22.52, 88.84, -28.75,
 0.26,0.22,0.89, -22.26, 90.82, -28.46,
 0.26,0.21,0.89, -21.28, 92.35, -28.27,
 0.25,0.23,0.91, -23.62, 96.06, -27.63,
 0.25,0.22,0.92, -26.35, 102.82, -25.94,
 0.21,0.22,0.94, -26.00, 106.38, -30.21,
 0.19,0.19,0.96, -31.95, 104.17, -33.05,
 0.20,0.26,0.98, -37.60, 105.15, -31.24,
 0.17,0.24,0.89, -34.67, 114.81, -32.29,
 0.13,0.21,0.92, -31.22, 115.76, -30.95,
 0.08,0.21,0.94, -31.39, 109.94, -30.79,
 0.06,0.19,0.93, -29.80, 108.31, -29.91,
 0.03,0.19,0.95, -28.03, 105.73, -28.35,
 0.03,0.20,0.95, -27.05, 94.24, -25.16,
 0.03,0.21,0.93, -26.08, 89.98, -23.89,
 0.02,0.18,0.94, -23.27, 87.19, -22.00,
 -0.00,0.19,0.95, -23.44, 83.05, -21.30,
 -0.00,0.19,0.94, -24.46, 76.79, -20.11,
 0.01,0.19,0.94, -24.60, 76.32, -20.43,
 0.00,0.20,0.94, -24.73, 76.55, -19.62,
 -0.01,0.18,0.95, -24.64, 74.35, -18.81,
 -0.02,0.19,0.95, -25.48, 72.40, -18.06,
 -0.03,0.18,0.93, -25.34, 72.12, -17.40,
 -0.04,0.17,0.94, -26.84, 71.07, -17.31,
 -0.04,0.17,0.93, -26.69, 72.11, -16.79,
 -0.05,0.16,0.94, -26.37, 73.05, -15.48,
 -0.07,0.16,0.93, -27.21, 70.79, -14.85,
 -0.08,0.16,0.92, -27.04, 69.83, -14.79,
 -0.10,0.15,0.91, -25.40, 68.50, -14.34,
 -0.10,0.13,0.90, -23.79, 67.57, -13.98,
 -0.11,0.14,0.91, -23.48, 65.69, -13.79,
 -0.13,0.13,0.90, -21.82, 62.95, -13.18,
 -0.13,0.13,0.91, -21.63, 60.47, -12.18,
 -0.14,0.13,0.91, -20.29, 58.75, -11.11,
 -0.16,0.14,0.90, -19.91, 53.71, -10.63,
 -0.16,0.13,0.90, -17.69, 52.75, -10.11,
 -0.17,0.12,0.90, -17.69, 51.19, -11.08,
 -0.17,0.13,0.91, -18.93, 48.03, -11.69,
 -0.16,0.12,0.91, -19.30, 47.51, -12.02,
 -0.15,0.12,0.89, -19.02, 51.98, -14.24,
 -0.14,0.13,0.90, -21.27, 57.39, -17.66,
 -0.14,0.12,0.91, -22.70, 63.13, -20.56,
 -0.12,0.12,0.89, -24.40, 68.52, -23.36,
 -0.13,0.12,0.88, -24.78, 74.76, -25.10,
 -0.15,0.11,0.86, -24.95, 79.86, -24.64,
 -0.18,0.08,0.88, -24.50, 79.30, -23.31,
 -0.20,0.08,0.87, -22.61, 76.40, -21.95,
 -0.22,0.08,0.87, -19.80, 72.50, -20.15,
 -0.24,0.06,0.87, -17.21, 68.53, -16.95,
 -0.26,0.07,0.88, -14.38, 61.51, -14.29,
 -0.26,0.08,0.88, -12.23, 55.44, -12.40,
 -0.28,0.09,0.89, -11.56, 49.28, -10.76,
 -0.28,0.10,0.91, -11.28, 44.40, -9.60,
 -0.27,0.11,0.91, -11.45, 41.21, -9.42,
 -0.27,0.11,0.90, -12.06, 40.15, -10.64,
 -0.25,0.10,0.89, -12.31, 44.81, -11.04,
 -0.26,0.11,0.90, -14.14, 46.20, -12.75,
 -0.26,0.10,0.89, -15.66, 46.27, -13.76,
 -0.25,0.09,0.89, -16.78, 49.30, -16.17,
 -0.25,0.10,0.88, -17.95, 51.92, -18.82,
 -0.24,0.08,0.87, -19.24, 58.58, -20.23,
 -0.24,0.08,0.87, -18.49, 67.63, -20.24,
 -0.27,0.09,0.87, -18.37, 70.98, -21.56,
 -0.28,0.08,0.86, -19.18, 71.50, -21.57,
 -0.30,0.07,0.88, -20.34, 68.56, -20.87,
 -0.31,0.08,0.87, -19.88, 68.46, -19.92,
 -0.33,0.07,0.86, -18.98, 67.37, -18.79,
 -0.34,0.06,0.86, -16.47, 67.22, -16.67,
 -0.36,0.06,0.85, -15.98, 64.26, -15.53,
 -0.38,0.07,0.87, -16.58, 56.79, -13.91,
 -0.38,0.07,0.88, -16.63, 52.64, -12.37,
 -0.38,0.07,0.86, -16.24, 50.26, -11.89,
 -0.38,0.06,0.86, -16.41, 47.89, -11.47,
 -0.38,0.07,0.85, -16.37, 46.49, -10.37,
 -0.38,0.05,0.85, -16.12, 46.53, -10.18,
 -0.37,0.05,0.84, -17.04, 49.25, -10.60,
 -0.38,0.06,0.83, -16.95, 52.47, -10.90,
 -0.40,0.04,0.84, -17.71, 50.93, -11.57,
 -0.40,0.04,0.83, -18.27, 50.23, -12.20,
 -0.39,0.03,0.82, -17.63, 52.38, -13.69,
 -0.39,0.03,0.82, -17.53, 54.35, -15.04,
 -0.38,0.04,0.81, -16.35, 57.54, -15.47,
 -0.39,0.02,0.79, -17.18, 59.34, -16.09,
 -0.40,0.02,0.80, -17.54, 59.91, -15.74,
 -0.40,0.03,0.80, -16.41, 62.44, -15.98,
 -0.40,0.03,0.80, -16.32, 63.08, -16.11,
 -0.42,0.02,0.80, -16.18, 64.38, -15.79,
 -0.44,0.02,0.80, -16.15, 64.53, -16.44,
 -0.45,0.03,0.80, -16.64, 64.67, -16.66,
 -0.46,0.03,0.80, -16.46, 64.47, -16.81,
 -0.47,0.04,0.80, -16.56, 62.95, -16.95,
 -0.48,0.03,0.80, -17.42, 62.41, -17.63,
 -0.47,0.03,0.81, -18.15, 63.42, -18.81,
 -0.47,0.03,0.79, -19.48, 65.19, -19.30,
 -0.47,0.03,0.78, -20.41, 65.92, -18.95,
 -0.47,0.02,0.78, -21.05, 66.60, -18.34,
 -0.48,0.01,0.78, -21.44, 67.39, -17.73,
 -0.49,0.01,0.76, -21.13, 67.73, -16.78,
 -0.50,0.00,0.76, -20.63, 67.48, -16.05,
 -0.52,-0.00,0.75, -18.93, 66.21, -15.28,
 -0.52,0.00,0.75, -18.41, 65.42, -15.18,
 -0.53,-0.01,0.74, -18.21, 67.31, -15.21,
 -0.54,-0.02,0.73, -17.76, 68.93, -15.60,
 -0.54,-0.01,0.72, -16.15, 70.64, -16.79,
 -0.54,-0.02,0.72, -16.75, 72.14, -18.05,
 -0.55,-0.03,0.74, -18.43, 72.69, -18.41,
 -0.57,-0.01,0.73, -18.98, 73.02, -19.22,
 -0.58,-0.02,0.72, -18.49, 73.47, -19.40,
 -0.59,-0.02,0.72, -18.96, 72.35, -19.91,
 -0.60,-0.02,0.72, -19.73, 72.90, -20.34,
 -0.61,-0.02,0.73, -19.50, 72.52, -20.12,
 -0.62,-0.03,0.71, -19.56, 71.45, -20.26,
 -0.63,-0.03,0.71, -19.97, 69.60, -20.24,
 -0.63,-0.04,0.70, -20.76, 68.26, -20.49,
 -0.64,-0.03,0.70, -20.09, 67.45, -20.53,
 -0.63,-0.05,0.69, -20.44, 70.32, -22.02,
 -0.64,-0.05,0.68, -21.39, 72.08, -23.71,
 -0.64,-0.06,0.67, -21.07, 71.98, -24.46,
 -0.64,-0.06,0.67, -20.99, 71.82, -25.42,
 -0.64,-0.07,0.65, -20.87, 72.32, -25.45,
 -0.64,-0.07,0.64, -20.44, 72.27, -24.58,
 -0.65,-0.06,0.64, -20.27, 70.20, -22.87,
 -0.65,-0.07,0.64, -19.45, 69.65, -21.73,
 -0.65,-0.06,0.63, -18.95, 71.45, -21.22,
 -0.64,-0.07,0.64, -19.51, 75.50, -19.63,
 -0.68,-0.06,0.63, -20.82, 76.18, -19.42,
 -0.70,-0.07,0.62, -19.59, 74.31, -19.63,
 -0.71,-0.06,0.62, -19.40, 74.61, -19.92,
 -0.73,-0.07,0.62, -18.72, 74.85, -21.82,
 -0.74,-0.07,0.62, -20.31, 74.37, -23.08,
 -0.73,-0.08,0.61, -21.59, 76.00, -23.50,
 -0.74,-0.09,0.60, -22.14, 77.53, -24.63,
 -0.75,-0.09,0.58, -21.79, 77.15, -26.61,
 -0.75,-0.10,0.58, -21.30, 75.88, -27.69,
 -0.75,-0.10,0.57, -21.86, 75.69, -28.60,
 -0.73,-0.12,0.55, -22.89, 77.54, -27.91,
 -0.74,-0.12,0.53, -21.68, 80.17, -29.37,
 -0.76,-0.12,0.52, -19.65, 79.54, -29.94,
 -0.76,-0.14,0.52, -20.00, 78.00, -30.40,
 -0.73,-0.13,0.53, -20.24, 78.73, -28.73,
 -0.76,-0.12,0.51, -21.94, 79.73, -26.87,
 -0.78,-0.13,0.52, -21.77, 76.69, -26.43,
 -0.79,-0.13,0.49, -21.08, 74.26, -26.05,
 -0.79,-0.13,0.49, -19.79, 72.43, -26.43,
 -0.79,-0.13,0.49, -19.07, 70.89, -26.53,
 -0.78,-0.14,0.48, -18.82, 70.75, -26.27,
 -0.77,-0.13,0.48, -19.28, 71.48, -25.85,
 -0.78,-0.13,0.47, -20.12, 72.55, -24.67,
 -0.80,-0.14,0.45, -21.01, 72.53, -22.52,
 -0.82,-0.15,0.44, -20.56, 70.63, -20.84,
 -0.84,-0.16,0.44, -19.95, 67.69, -19.83,
 -0.84,-0.18,0.43, -21.95, 66.35, -19.31,
 -0.84,-0.18,0.41, -21.42, 65.13, -19.74,
 -0.85,-0.18,0.39, -19.40, 64.72, -21.07,
 -0.84,-0.20,0.39, -17.77, 65.45, -23.25,
 -0.83,-0.20,0.38, -17.13, 67.98, -25.82,
 -0.83,-0.19,0.38, -17.21, 70.37, -27.01,
 -0.82,-0.20,0.38, -17.60, 72.53, -28.38,
 -0.82,-0.20,0.37, -18.40, 73.94, -29.40,
 -0.82,-0.21,0.37, -21.59, 75.31, -30.02,
 -0.81,-0.18,0.37, -22.43, 75.22, -29.40,
 -0.83,-0.20,0.36, -21.42, 73.69, -28.56,
 -0.79,-0.21,0.35, -20.73, 74.12, -25.47,
 -0.82,-0.20,0.35, -22.26, 72.98, -24.81,
 -0.84,-0.20,0.34, -19.89, 67.71, -24.29,
 -0.83,-0.19,0.35, -18.92, 64.81, -23.30,
 -0.82,-0.20,0.33, -19.36, 64.49, -22.05,
 -0.83,-0.19,0.33, -19.59, 65.13, -20.66,
 -0.84,-0.20,0.32, -19.85, 64.35, -18.89,
 -0.85,-0.20,0.31, -20.61, 62.31, -17.66,
 -0.86,-0.21,0.31, -21.30, 61.37, -17.16,
 -0.87,-0.21,0.30, -22.05, 60.81, -17.30,
 -0.88,-0.22,0.28, -22.47, 60.31, -17.02,
 -0.89,-0.23,0.28, -22.67, 59.19, -16.67,
 -0.90,-0.24,0.26, -23.45, 57.48, -16.14,
 -0.92,-0.24,0.24, -22.81, 55.47, -15.82,
 -0.93,-0.26,0.22, -21.34, 53.66, -15.47,
 -0.93,-0.26,0.22, -19.44, 50.87, -15.33,
 -0.93,-0.27,0.22, -18.63, 47.42, -15.73,
 -0.92,-0.27,0.21, -19.31, 47.19, -16.47,
 -0.93,-0.26,0.22, -17.48, 47.10, -17.86,
 -0.92,-0.26,0.21, -15.60, 47.89, -19.08,
 -0.90,-0.26,0.21, -14.72, 48.44, -19.05,
 -0.92,-0.26,0.21, -14.66, 48.41, -18.89,
 -0.91,-0.26,0.21, -14.46, 47.53, -18.18,
 -0.91,-0.26,0.21, -14.29, 45.50, -17.27,
 -0.91,-0.27,0.20, -14.58, 43.66, -15.51,
 -0.90,-0.27,0.21, -14.60, 40.75, -13.04,
 -0.92,-0.27,0.18, -13.36, 37.36, -11.11,
 -0.91,-0.27,0.18, -12.26, 34.96, -9.22,
 -0.91,-0.27,0.16, -13.02, 33.31, -6.60,
 -0.91,-0.27,0.17, -11.85, 32.96, -5.48,
 -0.93,-0.27,0.18, -10.53, 25.83, -4.43,
 -0.93,-0.28,0.17, -11.18, 23.18, -2.78,
 -0.94,-0.27,0.18, -11.54, 22.67, -2.79,
 -0.94,-0.27,0.17, -11.47, 19.88, -2.79,
 -0.94,-0.28,0.16, -8.58, 21.92, -5.91,
 -0.94,-0.26,0.16, -9.76, 23.11, -7.83,
 -0.93,-0.29,0.17, -7.63, 22.31, -8.95,
 -0.93,-0.28,0.16, -10.00, 29.34, -10.02,
 -0.94,-0.28,0.17, -10.09, 30.40, -11.30,
 -0.93,-0.28,0.15, -10.15, 28.81, -11.71,
 -0.92,-0.28,0.16, -9.05, 26.72, -12.23,
 -0.93,-0.29,0.14, -9.22, 26.27, -11.91,
 -0.92,-0.29,0.16, -8.46, 26.08, -10.47,
 -0.94,-0.27,0.16, -8.41, 18.56, -8.60,
 -0.92,-0.28,0.15, -8.12, 16.82, -5.95,
 -0.92,-0.27,0.15, -7.53, 13.57, -3.91,
 -0.93,-0.27,0.15, -7.89, 10.09, -1.85,
 -0.93,-0.28,0.15, -7.56, 7.74, 0.17,
 -0.93,-0.28,0.16, -7.19, 5.18, 1.42,
 -0.93,-0.27,0.15, -8.32, 1.50, 3.21,
 -0.94,-0.29,0.13, -7.95, 0.78, 3.08,
 -0.93,-0.29,0.13, -7.68, 0.93, 2.21,
 -0.93,-0.30,0.13, -7.37, 1.31, 1.28,
 -0.93,-0.29,0.12, -6.60, 0.09, 0.44,
 -0.93,-0.29,0.11, -6.93, -0.72, -1.05,
 -0.90,-0.30,0.11, -6.26, 3.66, -2.69,
 -0.92,-0.30,0.11, -6.21, 4.66, -4.27,
 -0.90,-0.30,0.11, -5.05, 8.47, -5.40,
 -0.92,-0.30,0.12, -4.93, 10.76, -6.17,
 -0.90,-0.29,0.11, -4.95, 11.19, -6.49,
 -0.92,-0.29,0.11, -4.79, 12.44, -6.75,
 -0.92,-0.29,0.11, -4.58, 12.70, -7.04,
 -0.92,-0.28,0.13, -4.73, 11.85, -6.61,
 -0.92,-0.28,0.14, -5.36, 10.18, -5.54,
 -0.92,-0.27,0.15, -5.48, 8.03, -4.20,
 -0.91,-0.28,0.14, -6.26, 6.02, -3.51,
 -0.92,-0.28,0.14, -6.99, 3.73, -2.03,
 -0.92,-0.28,0.13, -6.96, 1.51, -0.76,
 -0.92,-0.29,0.13, -6.82, -0.08, -0.20,
 -0.91,-0.29,0.12, -6.09, -0.29, -0.31,
 -0.91,-0.28,0.12, -5.69, 0.44, -0.37,
 -0.91,-0.29,0.12, -5.71, 0.87, -0.44,
 -0.91,-0.28,0.12, -5.85, 1.10, -0.73,
 -0.92,-0.30,0.12, -5.83, 1.36, -1.45,
 -0.92,-0.29,0.12, -5.34, 1.82, -1.89,
 -0.91,-0.30,0.12, -4.84, 1.69, -1.88,
 -0.92,-0.30,0.12, -4.17, 1.56, -2.08,
 -0.91,-0.29,0.12, -3.57, 1.04, -2.23,
 -0.91,-0.29,0.12, -3.59, 1.44, -2.35,
 -0.90,-0.29,0.13, -3.86, 1.65, -1.77,
 -0.90,-0.29,0.13, -4.06, 2.55, -1.89,
 -0.91,-0.29,0.13, -4.26, 2.95, -2.27,
 -0.91,-0.28,0.14, -4.24, 2.90, -2.87,
 -0.91,-0.29,0.14, -4.47, 2.98, -2.89,
 -0.91,-0.28,0.14, -4.85, 2.85, -2.70,
 -0.92,-0.29,0.14, -5.01, 2.50, -2.06,
 -0.92,-0.29,0.13, -4.82, 1.01, -1.74,
 -0.92,-0.29,0.13, -4.50, -0.46, -1.40,
 -0.93,-0.29,0.14, -4.29, -1.80, -1.65,
 -0.92,-0.29,0.14, -4.08, -2.40, -1.22,
 -0.91,-0.29,0.13, -3.97, -3.01, -0.93,
 -0.90,-0.29,0.13, -4.17, -2.76, -0.85,
 -0.90,-0.29,0.13, -4.53, -2.66, -0.44,
 -0.90,-0.29,0.13, -4.73, -2.24, -0.64,
 -0.90,-0.29,0.12, -4.41, -1.60, -0.79,
 -0.89,-0.29,0.13, -4.05, -1.40, -0.53,
 -0.89,-0.29,0.12, -3.94, -1.40, -0.02,
 -0.89,-0.29,0.13, -3.44, -2.00, 0.21,
 -0.89,-0.28,0.13, -3.56, -2.12, 0.29,
 -0.89,-0.28,0.13, -3.30, -2.06, 0.20,
 -0.89,-0.28,0.13, -3.44, -1.98, 0.79,
 -0.89,-0.28,0.14, -3.40, -1.56, 0.89,
 -0.89,-0.28,0.14, -3.50, -0.58, 0.67,
 -0.90,-0.28,0.14, -3.98, 0.11, 0.61,
 -0.91,-0.28,0.14, -4.29, 0.03, 0.29,
 -0.91,-0.28,0.14, -4.49, 0.03, -0.08,
 -0.91,-0.29,0.12, -4.27, -0.03, -0.23,
 -0.91,-0.28,0.13, -4.56, 0.11, -0.63,
 -0.91,-0.27,0.13, -4.76, 0.18, -0.78,
 -0.90,-0.28,0.13, -5.07, 0.73, -0.75,
 -0.91,-0.28,0.12, -5.71, 1.47, -0.64,
 -0.91,-0.29,0.13, -5.31, 1.69, -0.72,
 -0.91,-0.29,0.12, -4.78, 1.77, -0.92,
 -0.91,-0.29,0.13, -4.63, 1.69, -1.16,
 -0.90,-0.29,0.12, -4.61, 1.62, -0.93,
 -0.90,-0.29,0.12, -4.34, 1.34, -0.37,
 -0.90,-0.29,0.14, -4.26, 0.92, 0.12,
 -0.89,-0.29,0.13, -4.29, 0.41, 0.40,
 -0.89,-0.29,0.13, -4.18, 0.40, 0.81,
 -0.89,-0.28,0.13, -3.73, -0.09, 1.02,
 -0.89,-0.28,0.14, -3.73, -0.70, 1.18,
 -0.90,-0.28,0.15, -3.62, -0.66, 1.47,
 -0.90,-0.28,0.15, -3.27, -0.95, 1.39,
 -0.90,-0.27,0.15, -3.21, -1.05, 1.36,
 -0.90,-0.28,0.15, -3.65, -1.19, 0.99,
 -0.90,-0.28,0.15, -3.44, -0.90, 0.98,
 -0.90,-0.28,0.14, -3.28, -0.49, 0.90,
 -0.91,-0.27,0.14, -3.65, -0.27, 0.75,
 -0.90,-0.27,0.15, -3.50, -0.05, 0.60,
 -0.90,-0.27,0.15, -3.94, 0.32, 0.41,
 -0.91,-0.27,0.14, -4.53, 0.17, 0.58,
 -0.91,-0.27,0.15, -4.66, 0.06, 0.79,
 -0.91,-0.27,0.14, -4.64, -0.82, 1.31,
 -0.91,-0.28,0.14, -4.34, -1.48, 1.19,
 -0.90,-0.28,0.14, -4.24, -2.21, 1.18,
 -0.90,-0.28,0.15, -4.35, -2.06, 1.07,
 -0.90,-0.28,0.15, -4.21, -2.00, 1.10,
 -0.90,-0.29,0.13, -3.74, -1.60, 0.75,
 -0.89,-0.28,0.14, -3.98, -0.70, 0.44,
 -0.89,-0.28,0.14, -3.94, 0.75, 0.00,
 -0.89,-0.28,0.14, -4.06, 2.34, -0.58,
 -0.89,-0.27,0.15, -4.38, 3.39, -1.24,
 -0.89,-0.28,0.15, -4.99, 4.40, -1.66,
 -0.89,-0.28,0.15, -5.21, 4.89, -0.84,
 -0.91,-0.28,0.14, -5.45, 4.66, -0.55,
 -0.91,-0.28,0.14, -5.56, 3.85, -0.17,
 -0.92,-0.29,0.14, -4.99, 2.61, 0.08,
 -0.92,-0.29,0.15, -4.85, 1.56, 0.69,
 -0.92,-0.29,0.14, -4.37, 0.95, 1.18,
 -0.92,-0.29,0.14, -4.35, 0.49, 1.27,
 -0.93,-0.28,0.15, -4.52, -0.14, 0.95,
 -0.93,-0.28,0.15, -5.02, -0.49, 0.47,
 -0.92,-0.28,0.14, -4.99, -0.47, -0.02,
 -0.92,-0.28,0.14, -4.89, -0.35, -0.18,
 -0.92,-0.28,0.13, -4.20, -0.41, -0.67,
 -0.92,-0.29,0.14, -3.76, -0.50, -1.53,
 -0.92,-0.28,0.14, -3.68, -0.52, -2.00,
 -0.91,-0.28,0.15, -3.82, 0.31, -2.12,
 -0.90,-0.27,0.14, -4.20, 0.81, -1.92,
 -0.91,-0.28,0.14, -4.21, 1.01, -1.94,
 -0.91,-0.28,0.15, -4.44, 1.22, -1.98,
 -0.92,-0.27,0.14, -5.10, 0.99, -2.21,
 -0.91,-0.27,0.15, -5.24, 0.99, -2.38,
 -0.90,-0.27,0.14, -5.10, 1.15, -2.08,
 -0.90,-0.28,0.13, -5.10, 1.33, -2.08,
 -0.91,-0.28,0.13, -4.72, 1.22, -1.85,
 -0.90,-0.27,0.14, -4.58, 1.02, -1.69,
 -0.90,-0.28,0.14, -4.34, 0.84, -1.66,
 -0.90,-0.28,0.14, -4.24, 1.05, -1.51,
 -0.90,-0.27,0.14, -4.27, 1.24, -1.71,