accl_x,accl_y,accl_z,gyro_x,gyro_y,gyro_z
 0.38,0.14,0.86, -4.73, -4.67, 0.70,
 0.38,0.13,0.87, -4.47, -4.73, 0.85,
 0.38,0.13,0.87, -4.61, -4.72, 1.19,
 0.36,0.12,0.87, -4.79, -5.71, 1.19,
 0.37,0.12,0.85, -4.00, -5.97, 0.85,
 0.36,0.11,0.85, -2.79, -6.44, 0.67,
 0.35,0.11,0.85, -2.14, -6.50, 0.31,
 0.34,0.11,0.86, -1.92, -6.66, -0.32,
 0.34,0.11,0.86, -1.57, -7.07, -1.28,
 0.34,0.11,0.88, -1.63, -7.28, -2.20,
 0.34,0.12,0.88, -2.06, -7.27, -3.13,
 0.35,0.12,0.89, -3.33, -7.05, -4.00,
 0.37,0.13,0.89, -4.35, -7.33, -4.58,
 0.38,0.13,0.90, -5.22, -7.31, -4.76,
 0.39,0.13,0.90, -6.49, -7.13, -3.69,
 0.40,0.13,0.88, -7.25, -7.37, -2.84,
 0.39,0.12,0.87, -7.28, -8.00, -2.58,
 0.39,0.12,0.87, -6.87, -8.56, -2.58,
 0.39,0.13,0.87, -6.67, -9.19, -2.61,
 0.39,0.11,0.86, -6.50, -9.39, -2.90,
 0.39,0.11,0.85, -5.53, -9.60, -4.21,
 0.40,0.11,0.83, -5.10, -9.15, -5.60,
 0.41,0.10,0.82, -4.44, -8.35, -6.12,
 0.42,0.11,0.83, -3.92, -8.08, -5.94,
 0.42,0.11,0.84, -3.15, -8.61, -5.45,
 0.43,0.11,0.83, -2.40, -9.25, -4.53,
 0.43,0.12,0.84, -2.52, -9.42, -3.73,
 0.43,0.13,0.84, -2.43, -8.67, -2.96,
 0.42,0.13,0.87, -3.19, -8.05, -3.08,
 0.43,0.13,0.86, -3.66, -6.72, -3.57,
 0.42,0.13,0.87, -4.23, -5.56, -4.99,
 0.43,0.13,0.86, -4.95, -5.02, -5.08,
 0.43,0.15,0.86, -5.36, -4.23, -5.40,
 0.43,0.14,0.87, -5.98, -3.36, -5.54,
 0.44,0.14,0.85, -5.76, -2.75, -5.69,
 0.44,0.14,0.85, -5.30, -1.62, -5.71,
 0.44,0.13,0.85, -4.44, -2.17, -5.18,
 0.44,0.13,0.85, -3.27, -4.26, -4.24,
 0.43,0.12,0.84, -1.83, -6.95, -3.74,
 0.43,0.12,0.85, -0.75, -11.11, -2.23,
 0.41,0.12,0.84, 0.55, -14.82, -1.05,
 0.40,0.13,0.85, 1.50, -18.63, -0.56,
 0.40,0.13,0.85, 1.18, -21.31, 0.00,
 0.39,0.12,0.86, 0.64, -22.75, -0.29,
 0.38,0.13,0.87, -0.38, -23.77, -1.44,
 0.38,0.13,0.87, -1.28, -24.92, -3.73,
 0.38,0.13,0.86, -1.39, -26.93, -6.37,
 0.39,0.12,0.86, -0.81, -29.56, -8.40,
 0.41,0.12,0.85, -0.02, -32.98, -9.53,
 0.42,0.12,0.83, 1.13, -36.52, -10.26,
 0.44,0.10,0.83, 2.84, -40.20, -8.90,
 0.44,0.10,0.83, 4.47, -45.13, -6.93,
 0.41,0.09,0.83, 6.06, -51.04, -5.85,
 0.38,0.08,0.84, 8.14, -58.08, -5.39,
 0.36,0.07,0.83, 9.95, -65.45, -4.87,
 0.35,0.07,0.82, 10.99, -73.88, -6.09,
 0.34,0.08,0.82, 11.11, -82.82, -8.47,
 0.36,0.09,0.83, 10.44, -90.72, -12.06,
 0.40,0.11,0.82, 10.00, -96.06, -16.18,
 0.45,0.13,0.80, 9.13, -99.62, -20.52,
 0.52,0.14,0.81, 8.44, -100.41, -23.73,
 0.60,0.16,0.79, 9.54, -100.03, -24.53,
 0.66,0.17,0.78, 9.62, -100.06, -24.41,
 0.70,0.19,0.77, 10.41, -99.60, -23.15,
 0.77,0.19,0.76, 9.69, -96.11, -16.67,
 0.74,0.18,0.74, 12.75, -93.66, -10.53,
 0.73,0.18,0.74, 14.89, -93.88, -5.01,
 0.70,0.17,0.72, 16.84, -96.21, -1.47,
 0.70,0.17,0.71, 17.85, -98.87, 1.19,
 0.69,0.18,0.71, 17.80, -100.75, 2.81,
 0.68,0.18,0.70, 17.44, -101.47, 2.17,
 0.67,0.19,0.69, 16.79, -100.95, 0.31,
 0.67,0.21,0.70, 15.08, -100.05, -2.34,
 0.68,0.20,0.70, 13.62, -95.85, -6.09,
 0.64,0.20,0.72, 12.32, -96.58, -9.33,
 0.67,0.22,0.69, 12.50, -92.79, -9.76,
 0.71,0.22,0.65, 12.89, -84.61, -13.30,
 0.69,0.24,0.70, 9.92, -82.38, -15.86,
 0.71,0.25,0.70, 8.15, -76.41, -16.69,
 0.72,0.26,0.68, 6.09, -70.85, -16.26,
 0.73,0.26,0.70, 3.21, -68.12, -16.00,
 0.80,0.28,0.70, -1.88, -64.00, -16.15,
 0.78,0.28,0.72, -6.08, -59.59, -14.41,
 0.82,0.28,0.73, -10.34, -56.32, -12.08,
 0.82,0.28,0.70, -11.31, -55.65, -10.82,
 0.80,0.26,0.70, -10.50, -59.68, -9.24,
 0.79,0.26,0.68, -8.73, -64.11, -8.08,
 0.78,0.26,0.67, -7.08, -67.51, -6.90,
 0.77,0.25,0.66, -6.70, -69.36, -6.90,
 0.76,0.24,0.66, -6.81, -69.34, -8.17,
 0.76,0.24,0.64, -7.36, -67.51, -9.44,
 0.76,0.22,0.61, -8.03, -65.01, -12.15,
 0.77,0.21,0.59, -7.86, -61.16, -15.28,
 0.81,0.21,0.58, -7.30, -56.05, -16.18,
 0.82,0.21,0.55, -5.86, -52.41, -14.84,
 0.83,0.22,0.57, -4.09, -51.98, -12.49,
 0.82,0.21,0.56, -2.90, -53.01, -8.75,
 0.79,0.20,0.55, -2.44, -55.76, -5.07,
 0.77,0.21,0.55, -1.83, -58.89, -3.51,
 0.75,0.21,0.55, -1.31, -61.02, -3.53,
 0.75,0.22,0.56, -0.82, -61.62, -4.21,
 0.74,0.22,0.56, -1.28, -60.93, -4.17,
 0.74,0.22,0.55, -1.28, -59.39, -3.60,
 0.72,0.22,0.54, -0.87, -58.15, -3.07,
 0.72,0.22,0.54, -0.79, -56.67, -1.73,
 0.71,0.22,0.54, -2.31, -54.55, -1.54,
 0.68,0.21,0.55, -3.01, -54.73, -4.20,
 0.68,0.21,0.53, -2.66, -55.45, -7.36,
 0.67,0.20,0.52, -1.97, -56.49, -10.12,
 0.67,0.20,0.49, -0.61, -58.66, -12.92,
 0.70,0.19,0.50, 0.50, -60.99, -15.13,
 0.72,0.20,0.50, 1.69, -62.41, -16.41,
 0.78,0.21,0.49, 0.87, -59.89, -14.93,
 0.80,0.21,0.51, -1.51, -56.67, -12.95,
 0.79,0.21,0.48, -3.15, -54.21, -11.85,
 0.78,0.20,0.45, -3.08, -54.56, -11.88,
 0.77,0.19,0.43, -3.15, -58.06, -14.52,
 0.76,0.20,0.43, 0.69, -58.47, -12.05,
 0.76,0.20,0.41, 1.80, -62.11, -11.63,
 0.75,0.20,0.40, 2.64, -66.99, -12.52,
 0.76,0.20,0.37, 3.80, -70.98, -13.28,
 0.79,0.21,0.36, 5.02, -71.39, -14.26,
 0.84,0.22,0.36, 6.82, -69.11, -15.53,
 0.86,0.22,0.37, 8.14, -65.11, -14.82,
 0.89,0.23,0.38, 8.50, -61.97, -13.28,
 0.88,0.24,0.40, 8.47, -60.69, -12.32,
 0.87,0.24,0.39, 8.78, -60.03, -10.67,
 0.84,0.24,0.42, 8.49, -61.56, -10.23,
 0.82,0.25,0.41, 6.93, -64.23, -11.37,
 0.81,0.25,0.39, 5.13, -67.44, -14.23,
 0.79,0.25,0.39, 3.71, -70.49, -17.88,
 0.80,0.25,0.37, 1.82, -72.72, -21.97,
 0.82,0.25,0.35, -0.08, -73.36, -26.32,
 0.85,0.25,0.33, -0.46, -73.37, -29.42,
 0.88,0.25,0.31, 0.38, -72.95, -30.53,
 0.91,0.26,0.27, 1.66, -72.70, -28.72,
 0.92,0.25,0.26, 4.37, -74.35, -25.68,
 0.92,0.26,0.24, 8.85, -77.45, -21.76,
 0.91,0.25,0.23, 13.48, -82.12, -18.17,
 0.89,0.26,0.21, 17.33, -87.59, -16.58,
 0.89,0.26,0.22, 19.21, -90.23, -16.34,
 0.90,0.27,0.23, 18.40, -89.34, -16.08,
 0.93,0.29,0.25, 16.08, -85.16, -15.02,
 0.91,0.30,0.27, 12.84, -79.56, -13.57,
 0.90,0.32,0.28, 9.88, -73.71, -15.79,
 0.89,0.32,0.28, 6.92, -69.42, -19.79,
 0.89,0.32,0.30, 4.26, -66.93, -23.42,
 0.90,0.33,0.29, -0.32, -66.21, -24.40,
 0.92,0.34,0.27, -4.41, -67.88, -23.73,
 0.92,0.33,0.26, -7.76, -70.47, -23.04,
 0.90,0.33,0.23, -3.40, -82.92, -22.40,
 0.89,0.31,0.16, 2.00, -83.88, -26.44,
 0.91,0.29,0.12, 6.02, -88.99, -29.10,
 0.93,0.30,0.10, 10.60, -93.44, -28.69,
 0.93,0.31,0.07, 15.54, -95.54, -27.62,
 0.94,0.31,0.05, 20.00, -97.51, -26.34,
 0.94,0.31,0.03, 24.15, -97.88, -25.89,
 0.97,0.31,0.03, 26.12, -96.03, -26.08,
 1.01,0.32,0.06, 22.79, -88.37, -24.69,
 1.02,0.33,0.07, 15.98, -80.92, -22.87,
 1.06,0.33,0.07, 9.11, -74.40, -20.02,
 1.07,0.33,0.08, 2.98, -69.13, -16.02,
 1.04,0.33,0.06, 0.75, -69.77, -11.05,
 1.02,0.33,0.07, -1.45, -72.14, -4.35,
 0.95,0.32,0.03, -1.69, -83.34, -3.18,
 0.92,0.31,-0.00, 1.18, -91.65, -3.19,
 0.89,0.29,-0.03, 8.17, -107.36, -9.34,
 0.98,0.38,-0.06, 16.34, -115.18, -9.57,
 0.97,0.36,-0.04, 20.02, -105.76, -4.78,
 0.90,0.32,-0.08, 26.69, -107.05, -10.38,
 0.89,0.30,-0.12, 35.50, -108.72, -19.53,
 0.93,0.31,-0.10, 42.26, -105.45, -25.74,
 1.02,0.35,-0.07, 42.12, -93.48, -25.13,
 1.11,0.40,0.00, 34.87, -76.90, -19.25,
 1.12,0.39,0.02, 27.05, -64.09, -15.10,
 1.07,0.36,-0.00, 23.94, -56.26, -12.90,
 1.02,0.36,-0.01, 23.22, -52.87, -11.15,
 0.95,0.36,-0.03, 24.00, -56.56, -9.91,
 0.91,0.36,-0.06, 26.15, -67.27, -9.31,
 0.88,0.37,-0.08, 29.37, -79.18, -10.55,
 0.88,0.39,-0.11, 32.70, -91.24, -11.47,
 0.91,0.40,-0.13, 34.58, -98.37, -13.42,
 0.93,0.40,-0.14, 37.94, -101.04, -14.02,
 0.95,0.40,-0.17, 41.31, -100.92, -16.34,
 1.00,0.40,-0.18, 43.15, -95.45, -17.98,
 1.04,0.41,-0.15, 41.36, -85.34, -15.25,
 1.04,0.40,-0.13, 39.30, -76.67, -13.86,
 1.02,0.39,-0.14, 35.59, -69.42, -12.31,
 1.03,0.38,-0.14, 31.15, -61.02, -10.60,
 1.01,0.43,-0.08, 24.08, -62.05, -7.82,
 1.00,0.40,-0.11, 21.24, -46.90, -3.57,
 1.01,0.38,-0.15, 17.63, -43.57, -2.41,
 0.94,0.40,-0.17, 14.76, -51.98, -0.90,
 0.93,0.40,-0.20, 14.87, -58.67, -0.02,
 0.91,0.38,-0.23, 16.92, -64.24, -0.40,
 0.95,0.39,-0.26, 18.24, -68.58, -0.23,
 0.95,0.37,-0.28, 21.18, -71.63, -1.77,
 0.96,0.37,-0.31, 25.56, -74.37, -2.06,
 0.99,0.38,-0.31, 27.33, -70.17, 1.34,
 1.02,0.37,-0.30, 27.36, -64.47, 4.43,
 1.04,0.36,-0.27, 23.59, -55.40, 11.25,
 1.03,0.36,-0.28, 19.37, -48.02, 17.51,
 1.02,0.35,-0.28, 15.07, -40.37, 24.21,
 1.04,0.38,-0.26, 8.87, -28.92, 33.05,
 1.02,0.41,-0.24, 0.11, -20.47, 42.82,
 0.96,0.41,-0.26, -5.15, -18.84, 49.94,
 0.90,0.40,-0.31, -6.34, -21.89, 51.05,
 0.87,0.38,-0.29, -8.35, -24.93, 47.83,
 0.88,0.36,-0.25, -8.34, -24.52, 41.89,
 0.91,0.36,-0.24, -10.11, -25.28, 35.59,
 0.93,0.35,-0.25, -9.82, -26.92, 30.09,
 0.91,0.32,-0.29, -5.50, -30.52, 23.15,
 0.93,0.31,-0.31, -0.70, -33.68, 17.88,
 0.93,0.31,-0.32, 3.59, -36.03, 13.21,
 0.90,0.32,-0.36, 10.41, -40.61, 6.82,
 0.90,0.32,-0.38, 18.03, -46.17, -0.37,
 0.91,0.32,-0.38, 23.54, -51.63, -5.16,
 1.00,0.37,-0.34, 21.21, -48.35, -2.66,
 1.04,0.39,-0.30, 13.86, -41.33, 3.53,
 1.03,0.38,-0.32, 8.82, -36.93, 7.16,
 1.01,0.37,-0.34, 7.21, -33.37, 9.57,
 1.00,0.37,-0.33, 3.92, -29.94, 12.92,
 0.96,0.35,-0.34, 1.10, -28.90, 15.76,
 0.92,0.32,-0.35, 0.14, -28.96, 15.24,
 0.90,0.32,-0.35, 0.08, -29.80, 13.34,
 0.87,0.30,-0.36, 1.31, -32.47, 8.85,
 0.83,0.29,-0.40, 4.61, -37.48, 3.16,
 0.86,0.29,-0.41, 7.54, -41.05, -1.54,
 0.87,0.32,-0.40, 8.89, -42.69, -3.60,
 0.90,0.34,-0.41, 7.68, -41.36, -3.24,
 0.90,0.34,-0.41, 6.82, -40.21, -3.31,
 0.90,0.33,-0.42, 5.92, -39.22, -4.24,
 0.89,0.32,-0.42, 4.24, -37.76, -7.63,
 0.88,0.31,-0.41, 1.50, -35.19, -11.57,
 0.89,0.30,-0.41, -2.11, -32.00, -14.84,
 0.92,0.31,-0.40, -6.72, -27.16, -15.51,
 0.97,0.31,-0.39, -13.28, -20.85, -13.42,
 0.98,0.32,-0.39, -20.38, -14.53, -8.31,
 0.97,0.30,-0.39, -24.99, -12.61, -3.80,
 0.94,0.30,-0.43, -26.29, -14.87, -0.26,
 0.90,0.29,-0.48, -24.43, -20.67, 2.23,
 0.85,0.28,-0.54, -19.10, -30.92, 2.41,
 0.85,0.29,-0.56, -13.86, -38.23, 1.94,
 0.86,0.29,-0.59, -8.70, -41.05, 0.05,
 0.86,0.28,-0.59, -3.39, -41.57, -2.96,
 0.89,0.28,-0.58, 0.14, -38.23, -6.52,
 0.91,0.28,-0.54, 0.52, -31.33, -8.63,
 0.94,0.30,-0.52, -0.95, -22.89, -8.20,
 0.95,0.30,-0.49, -4.06, -16.29, -6.50,
 0.96,0.31,-0.47, -9.22, -9.66, -4.34,
 0.97,0.31,-0.43, -15.47, -3.71, -0.78,
 0.94,0.30,-0.43, -21.28, -0.06, 2.09,
 0.93,0.30,-0.45, -24.95, 0.03, 3.82,
 0.91,0.30,-0.47, -24.67, -2.20, 4.95,
 0.90,0.31,-0.51, -22.21, -5.54, 4.96,
 0.92,0.32,-0.51, -20.00, -6.60, 5.71,
 0.94,0.32,-0.50, -21.18, -3.66, 8.21,
 0.94,0.31,-0.50, -23.44, 1.62, 10.58,
 0.94,0.32,-0.51, -26.72, 4.81, 13.42,
 0.90,0.33,-0.56, -25.40, 1.89, 15.91,
 0.85,0.30,-0.62, -15.51, -5.83, 13.54,
 0.92,0.29,-0.57, -7.45, -4.87, 11.79,
 0.95,0.31,-0.50, -4.85, -0.53, 12.70,
 0.93,0.32,-0.46, -5.27, 2.49, 13.33,
 0.91,0.32,-0.45, -5.85, 3.68, 13.53,
 0.88,0.33,-0.44, -6.90, 4.14, 12.31,
 0.82,0.32,-0.45, -6.24, 1.33, 4.72,
 0.82,0.32,-0.44, -4.21, -3.53, -4.21,
 0.88,0.34,-0.43, -3.11, -7.15, -8.29,
 0.90,0.34,-0.45, -2.21, -8.85, -8.46,
 0.93,0.34,-0.47, -0.67, -9.01, -8.85,
 0.95,0.33,-0.46, 0.35, -8.02, -7.60,
 0.94,0.32,-0.47, 1.69, -7.48, -7.44,
 0.93,0.31,-0.48, 1.54, -6.20, -5.53,
 0.92,0.31,-0.49, 0.61, -6.40, -4.67,
 0.90,0.30,-0.48, 0.41, -6.14, -4.52,
 0.90,0.30,-0.48, 1.18, -6.67, -3.88,
 0.90,0.30,-0.48, -0.43, -6.09, -2.44,
 0.90,0.30,-0.47, -3.98, -4.40, -0.89,
 0.88,0.32,-0.47, -6.61, -4.08, -0.17,
 0.88,0.32,-0.47, -8.24, -2.89, 0.12,
 0.87,0.32,-0.47, -10.31, -1.13, -0.89,
 0.87,0.33,-0.47, -12.03, 0.61, -2.55,
 0.88,0.31,-0.47, -11.54, 1.19, -4.87,
 0.89,0.30,-0.49, -10.35, 3.51, -6.84,
 0.91,0.29,-0.49, -9.16, 5.71, -7.60,
 0.89,0.30,-0.49, -8.20, 5.11, -7.63,
 0.89,0.29,-0.50, -6.66, 2.34, -7.69,
 0.89,0.28,-0.52, -4.47, -0.69, -8.03,
 0.90,0.30,-0.53, -2.35, -2.64, -6.23,
 0.90,0.31,-0.52, -1.02, -3.53, -4.11,
 0.91,0.30,-0.50, -0.84, -3.63, -1.66,
 0.89,0.31,-0.50, -0.85, -3.53, 0.24,
 0.87,0.31,-0.52, -0.32, -4.49, 0.46,
 0.88,0.32,-0.51, -0.32, -3.34, 0.47,
 0.90,0.33,-0.49, -2.53, 0.72, 1.30,
 0.90,0.33,-0.48, -4.09, 4.92, 0.92,
 0.90,0.33,-0.48, -5.56, 9.47, 0.20,
 0.89,0.33,-0.46, -6.89, 13.68, -0.84,
 0.88,0.32,-0.46, -8.12, 16.37, -1.51,
 0.87,0.32,-0.46, -9.07, 16.58, -1.53,
 0.86,0.33,-0.47, -8.73, 13.91, -0.95,
 0.86,0.32,-0.48, -6.69, 9.71, -0.18,
 0.86,0.32,-0.47, -4.18, 5.36, -0.11,
 0.86,0.33,-0.49, -3.05, 2.17, -0.20,
 0.86,0.32,-0.48, -2.21, 0.03, -0.47,
 0.85,0.32,-0.50, -0.96, -2.03, -1.47,
 0.85,0.32,-0.50, 0.31, -3.37, -3.53,
 0.89,0.33,-0.48, -1.50, -0.15, -3.73,
 0.90,0.34,-0.46, -5.16, 3.08, -2.56,
 0.90,0.32,-0.47, -6.20, 4.78, -3.86,
 0.90,0.33,-0.45, -7.71, 6.44, -3.53,
 0.90,0.33,-0.44, -9.19, 7.68, -3.08,
 0.88,0.33,-0.44, -10.58, 7.57, -3.19,
 0.87,0.33,-0.46, -11.71, 7.24, -2.87,
 0.88,0.34,-0.46, -12.76, 6.56, -1.73,
 0.86,0.34,-0.45, -12.49, 3.92, -1.39,
 0.85,0.33,-0.46, -11.01, 0.66, -1.56,
 0.84,0.33,-0.49, -7.37, -3.01, -2.76,
 0.83,0.32,-0.51, -3.79, -5.39, -4.70,
 0.83,0.32,-0.51, -0.87, -6.69, -7.51,
 0.84,0.32,-0.50, 1.13, -5.83, -10.43,
 0.87,0.32,-0.49, 2.14, -3.02, -12.78,
 0.88,0.33,-0.48, 1.30, 0.37, -13.73,
 0.88,0.33,-0.47, 0.14, 2.44, -15.10,
 0.90,0.32,-0.48, -0.69, 5.30, -15.50,
 0.91,0.32,-0.46, -2.38, 9.02, -15.34,
 0.93,0.33,-0.45, -5.82, 13.47, -13.89,
 0.94,0.33,-0.42, -9.94, 17.05, -11.62,
 0.93,0.33,-0.43, -11.33, 17.51, -10.31,
 0.93,0.33,-0.45, -12.02, 17.02, -9.01,
 0.91,0.32,-0.47, -10.73, 14.63, -7.45,
 0.90,0.33,-0.50, -7.65, 10.75, -8.23,
 0.92,0.34,-0.52, -4.00, 8.64, -7.45,
 0.94,0.32,-0.55, 0.99, 7.05, -7.39,
 0.96,0.32,-0.56, 6.14, 7.95, -6.03,
 0.98,0.32,-0.56, 9.91, 10.41, -2.84,
 0.99,0.31,-0.55, 12.11, 13.89, 0.99,
 0.98,0.31,-0.54, 14.20, 15.56, 4.56,
 0.94,0.31,-0.52, 15.85, 16.05, 6.84,
 0.93,0.30,-0.49, 15.19, 17.10, 8.56,
 0.90,0.31,-0.47, 13.62, 16.58, 8.87,
 0.88,0.33,-0.45, 11.33, 15.10, 8.21,
 0.88,0.33,-0.44, 9.47, 13.73, 6.26,
 0.87,0.33,-0.43, 7.71, 12.41, 3.77,
 0.86,0.34,-0.43, 5.51, 11.37, 1.28,
 0.87,0.35,-0.42, 3.16, 10.79, -1.22,
 0.88,0.35,-0.42, 0.82, 11.08, -2.56,
 0.88,0.35,-0.43, -0.58, 10.24, -3.59,
 0.88,0.34,-0.43, -1.33, 8.79, -3.94,
 0.87,0.33,-0.44, -1.33, 6.20, -3.45,
 0.86,0.32,-0.45, -0.11, 2.35, -3.54,
 0.86,0.32,-0.46, 1.62, -1.74, -3.37,
 0.86,0.32,-0.46, 2.15, -5.21, -2.99,
 0.87,0.33,-0.44, 1.30, -6.72, -2.29,
 0.88,0.33,-0.44, -0.11, -7.05, -1.28,
 0.87,0.33,-0.45, -1.10, -6.53, -0.53,
 0.87,0.33,-0.45, -2.27, -5.54, -0.73,
 0.88,0.34,-0.42, -4.29, -2.40, -0.40,
 0.88,0.34,-0.43, -6.79, -0.89, -0.27,
 0.86,0.34,-0.43, -8.35, 0.20, -0.09,
 0.87,0.34,-0.44, -9.65, 0.31, -0.02,
 0.85,0.33,-0.43, -10.11, -0.64, -0.29,
 0.86,0.33,-0.44, -10.66, -2.32, -0.81,
 0.85,0.33,-0.44, -10.58, -3.28, -1.94,
 0.83,0.31,-0.44, -10.66, -5.30, -4.34,
 0.84,0.32,-0.45, -10.17, -6.98, -6.89,
 0.84,0.31,-0.45, -9.36, -7.07, -9.57,
 0.86,0.33,-0.46, -8.49, -6.50, -12.53,
 0.88,0.32,-0.48, -7.45, -5.73, -14.03,
 0.90,0.31,-0.48, -6.24, -4.79, -15.18,
 0.93,0.32,-0.48, -5.62, -2.64, -14.44,
 0.96,0.34,-0.45, -7.19, 1.28, -11.25,
 0.96,0.34,-0.45, -8.89, 3.54, -7.48,
 0.95,0.33,-0.46, -9.73, 3.08, -4.78,
 0.91,0.33,-0.45, -8.78, 1.01, -3.89,
 0.90,0.34,-0.44, -9.30, -1.30, -2.78,
 0.89,0.34,-0.43, -10.99, -3.53, -1.91,
 0.89,0.35,-0.42, -13.47, -4.64, -1.94,
 0.89,0.35,-0.43, -14.93, -4.29, -1.68,
 0.90,0.35,-0.44, -16.49, -1.22, -1.40,
 0.89,0.34,-0.44, -16.76, 1.19, -2.14,
 0.88,0.32,-0.47, -14.87, 1.51, -3.24,
 0.89,0.32,-0.50, -12.60, 2.75, -3.71,
 0.91,0.33,-0.49, -11.69, 5.34, -3.28,
 0.90,0.33,-0.49, -10.26, 6.75, -3.21,
 0.90,0.33,-0.49, -8.50, 7.18, -2.89,
 0.89,0.33,-0.49, -6.23, 6.31, -2.99,
 0.87,0.33,-0.49, -4.38, 3.47, -3.10,
 0.86,0.33,-0.47, -2.99, 0.46, -3.56,
 0.87,0.34,-0.46, -2.56, -1.80, -4.09,
 0.87,0.36,-0.43, -4.11, -2.75, -3.73,
 0.89,0.36,-0.42, -7.25, -1.27, -2.75,
 0.88,0.36,-0.43, -9.36, 0.32, -3.42,
 0.88,0.35,-0.45, -10.20, 1.50, -4.67,
 0.89,0.36,-0.44, -11.30, 3.62, -4.92,
 0.89,0.35,-0.44, -12.79, 6.08, -4.87,
 0.89,0.35,-0.46, -12.44, 7.62, -4.87,
 0.89,0.35,-0.46, -11.77, 9.22, -4.78,
 0.88,0.35,-0.47, -10.06, 9.27, -4.60,