time,accl_x,accl_y,accl_z,gyro_x,gyro_y,gyro_z
0.0,0.14,-0.16,0.93,-2.38,7.48,7.24
3.3333333333333333e-06,0.14,-0.16,0.94,0.67,12.09,8.46
6.666666666666667e-06,0.12,-0.16,0.94,6.11,13.77,8.6
9.999999999999999e-06,0.15,-0.16,0.98,4.4,19.54,13.6
1.3333333333333333e-05,0.08,-0.18,1.03,3.57,15.34,11.71
1.6666666666666667e-05,0.02,-0.2,1.01,4.31,8.69,5.63
2e-05,0.04,-0.18,1.02,3.73,6.64,3.16
2.3333333333333336e-05,0.04,-0.16,1.02,11.69,-0.41,-1.04
2.666666666666667e-05,0.03,-0.17,1.06,1.71,2.29,-1.37
3.0000000000000004e-05,0.05,-0.16,1.01,0.6,2.37,-3.47
3.3333333333333335e-05,0.07,-0.16,1.0,2.63,3.19,-4.23
3.6666666666666666e-05,0.09,-0.15,1.01,3.25,1.24,-3.69
3.9999999999999996e-05,0.09,-0.16,1.04,1.76,0.95,-1.98
4.333333333333333e-05,0.1,-0.15,1.07,-2.15,-2.66,-2.32
4.666666666666666e-05,0.13,-0.14,1.04,-3.3,-2.27,-1.16
4.999999999999999e-05,0.14,-0.13,1.05,-5.51,-1.86,1.77
5.333333333333332e-05,0.14,-0.13,1.03,-7.54,-4.08,2.63
5.666666666666665e-05,0.14,-0.13,1.0,-5.68,-0.73,3.53
5.999999999999998e-05,0.11,-0.15,1.0,-5.48,-5.44,1.63
6.333333333333332e-05,0.15,-0.14,1.01,-4.78,-7.83,3.98
6.666666666666666e-05,0.15,-0.16,1.03,-5.28,-7.25,6.26
7e-05,0.14,-0.15,1.05,-8.17,-2.24,5.91
7.333333333333333e-05,0.11,-0.16,1.06,-8.52,-12.93,6.76
7.666666666666667e-05,0.14,-0.17,1.0,-8.24,-5.02,8.17
8e-05,0.13,-0.16,0.99,-7.11,-3.8,8.35
8.333333333333334e-05,0.13,-0.17,0.96,-5.73,-0.82,9.69
8.666666666666668e-05,0.11,-0.18,0.99,-5.05,-4.06,9.56
9.000000000000002e-05,0.12,-0.18,1.0,-4.7,-7.76,9.94
9.333333333333336e-05,0.11,-0.18,0.99,-4.52,-8.63,9.54
9.66666666666667e-05,0.13,-0.18,1.0,-4.47,-5.94,9.5
0.00010000000000000003,0.15,-0.18,1.01,-5.31,-3.68,11.1
0.00010333333333333337,0.19,-0.17,0.97,-4.76,3.88,14.99
0.00010666666666666671,0.16,-0.2,0.96,-0.23,0.69,17.1
0.00011000000000000004,0.16,-0.19,1.0,-4.61,5.3,20.63
0.00011333333333333338,0.13,-0.17,1.0,-4.6,5.5,23.44
0.00011666666666666672,0.08,-0.17,0.99,-3.08,4.05,21.85
0.00012000000000000006,0.07,-0.17,1.01,-4.34,4.93,20.17
0.0001233333333333334,0.07,-0.18,1.04,-6.85,4.84,19.56
0.00012666666666666672,0.02,-0.18,1.02,-5.74,-0.84,16.23
0.00013000000000000004,0.02,-0.19,1.04,-5.42,-3.91,14.03
0.00013333333333333337,-0.0,-0.18,1.02,-6.43,-8.55,9.47
0.0001366666666666667,0.06,-0.18,1.0,-6.08,-7.4,7.82
0.00014000000000000001,0.05,-0.18,0.99,-6.6,-7.63,5.8
0.00014333333333333334,0.08,-0.18,1.0,-6.52,-6.26,5.02
0.00014666666666666666,0.08,-0.19,1.01,-5.13,-9.18,4.17
0.00015,0.09,-0.18,1.04,-6.17,-10.85,2.6
0.0001533333333333333,0.11,-0.17,1.04,-7.56,-9.66,3.01
0.00015666666666666663,0.13,-0.19,1.03,-9.48,-10.31,3.24
0.00015999999999999996,0.13,-0.18,0.99,-7.36,-8.84,3.51
0.00016333333333333328,0.15,-0.17,0.97,-5.02,-8.92,4.73
0.0001666666666666666,0.19,-0.18,0.93,-0.9,-1.19,5.56
0.00016999999999999993,0.23,-0.18,0.86,6.93,14.2,9.4
0.00017333333333333325,0.29,-0.18,0.78,20.37,33.19,16.99
0.00017666666666666658,0.33,-0.16,0.72,36.11,53.62,28.67
0.0001799999999999999,0.29,-0.12,1.01,31.85,53.47,35.4
0.00018333333333333323,0.25,-0.08,1.19,16.0,48.66,47.48
0.00018666666666666655,0.11,-0.1,1.22,2.72,26.46,51.13
0.00018999999999999987,0.03,-0.14,1.19,-8.23,17.28,50.5
0.0001933333333333332,-0.09,-0.22,1.19,-15.57,10.92,39.66
0.00019666666666666652,-0.12,-0.23,1.04,-15.42,14.72,28.55
0.00019999999999999985,-0.1,-0.23,0.95,-12.64,14.12,20.96
0.00020333333333333317,-0.08,-0.24,0.9,-8.27,9.85,17.69
0.0002066666666666665,-0.09,-0.25,0.86,-3.05,4.05,12.81
0.00020999999999999982,-0.1,-0.26,0.88,1.08,2.98,6.84
0.00021333333333333314,-0.1,-0.26,0.96,1.69,3.21,2.5
0.00021666666666666647,-0.12,-0.25,1.01,0.46,0.02,-2.66
0.0002199999999999998,-0.12,-0.24,1.07,-3.21,-6.58,-7.07
0.00022333333333333311,-0.1,-0.24,1.07,-6.5,-14.27,-11.05
0.00022666666666666644,-0.03,-0.23,1.0,-6.29,-12.14,-10.31
0.00022999999999999976,-0.0,-0.22,0.98,-4.14,-10.18,-10.31
0.0002333333333333331,-0.01,-0.22,0.96,-3.13,-9.68,-12.47
0.0002366666666666664,-0.0,-0.22,0.96,-4.32,-7.6,-14.4
0.00023999999999999974,0.01,-0.2,1.02,-6.43,-13.13,-17.22
0.00024333333333333306,0.07,-0.19,0.95,-3.95,-11.02,-14.37
0.0002466666666666664,0.08,-0.18,0.98,-0.15,-9.01,-11.94
0.00024999999999999973,0.09,-0.19,1.02,-0.55,-8.38,-10.4
0.00025333333333333306,0.08,-0.18,1.03,-3.31,-3.39,-7.28
0.0002566666666666664,0.06,-0.18,1.01,-3.1,-1.45,-6.78
0.0002599999999999997,0.07,-0.18,1.05,-4.12,-2.5,-6.78
0.00026333333333333303,0.08,-0.17,1.03,-6.05,4.12,-4.61
0.00026666666666666635,0.08,-0.18,1.0,-5.91,5.42,-3.57
0.0002699999999999997,0.06,-0.19,0.99,-5.25,2.55,-3.45
0.000273333333333333,0.06,-0.18,1.0,-5.1,3.21,-1.22
0.0002766666666666663,0.08,-0.19,0.96,-4.26,7.88,3.83
0.00027999999999999965,0.02,-0.2,1.02,-4.63,3.94,0.35
0.000283333333333333,0.01,-0.21,1.01,-5.56,1.3,-4.44
0.0002866666666666663,0.04,-0.21,1.0,-3.24,-0.49,-7.6
0.0002899999999999996,0.07,-0.2,0.99,-2.9,0.89,-6.41
0.00029333333333333295,0.07,-0.21,0.98,-0.82,-1.07,-5.5
0.00029666666666666627,0.06,-0.2,1.01,-1.86,-2.69,-4.52
0.0002999999999999996,0.07,-0.19,0.97,-0.09,-2.55,-2.46
0.0003033333333333329,0.04,-0.21,0.98,0.69,-4.4,-3.54
0.00030666666666666624,0.06,-0.2,1.01,-0.98,-0.47,-2.66
0.00030999999999999957,0.05,-0.22,0.99,-0.55,1.05,-2.58
0.0003133333333333329,0.04,-0.21,1.02,-1.8,1.48,-2.89
0.0003166666666666662,0.04,-0.21,1.04,-3.92,-1.48,-2.95
0.00031999999999999954,0.04,-0.22,1.01,-4.26,-0.96,-4.02
0.00032333333333333286,0.06,-0.22,1.0,-5.44,2.96,-3.66
0.0003266666666666662,0.05,-0.22,0.97,-3.8,3.42,-4.78
0.0003299999999999995,0.05,-0.23,0.95,-1.56,2.56,-4.31
0.00033333333333333283,0.05,-0.22,0.96,0.46,-1.62,-3.91
0.00033666666666666616,0.04,-0.22,0.97,1.89,-6.63,-4.53
0.0003399999999999995,0.05,-0.22,0.97,1.39,-7.02,-5.08
0.0003433333333333328,0.08,-0.21,1.0,0.43,-4.08,-4.55
0.00034666666666666613,0.07,-0.22,1.01,0.55,-0.99,-3.91
0.00034999999999999945,0.08,-0.22,1.03,-1.44,-0.9,-3.04
0.0003533333333333328,0.08,-0.23,1.01,-1.66,-1.44,-0.4
0.0003566666666666661,0.05,-0.22,1.0,-1.73,-1.48,-1.8
0.0003599999999999994,0.08,-0.22,1.0,-2.56,-0.35,-0.55
0.00036333333333333275,0.07,-0.21,1.0,-2.35,-1.74,-0.82
0.0003666666666666661,0.06,-0.21,0.99,-2.34,-0.81,-1.4
0.0003699999999999994,0.06,-0.22,0.98,-1.08,-1.83,-1.92
0.0003733333333333327,0.05,-0.22,0.97,0.03,-2.72,-2.03
0.00037666666666666605,0.06,-0.22,0.97,-0.35,-0.99,-1.97
0.00037999999999999937,0.05,-0.23,0.99,0.87,-2.81,-2.78
0.0003833333333333327,0.05,-0.22,1.0,1.13,-3.22,-3.71
0.000386666666666666,0.06,-0.22,1.0,0.09,-3.74,-3.97
0.00038999999999999934,0.05,-0.23,1.0,-0.78,-2.41,-5.44
0.00039333333333333267,0.05,-0.22,1.0,0.26,-1.76,-6.21
0.000396666666666666,0.05,-0.21,1.01,0.63,-3.21,-8.34
0.0003999999999999993,0.07,-0.21,1.0,-0.82,-3.92,-7.77
0.00040333333333333264,0.1,-0.21,0.98,0.69,-0.76,-4.66
0.00040666666666666596,0.09,-0.21,0.98,2.23,-2.46,-3.95
0.0004099999999999993,0.09,-0.21,1.01,1.45,-2.32,-3.19
0.0004133333333333326,0.08,-0.21,0.98,2.31,-2.72,-3.88
0.00041666666666666593,0.1,-0.21,0.99,2.6,0.14,-2.08
0.00041999999999999926,0.11,-0.21,1.0,1.69,1.18,0.49
0.0004233333333333326,0.08,-0.21,0.99,2.5,2.27,1.91
0.0004266666666666659,0.08,-0.21,1.04,0.67,1.51,2.02
0.00042999999999999923,0.08,-0.22,1.0,0.58,1.28,2.75
0.00043333333333333255,0.05,-0.22,1.0,1.63,2.23,1.88
0.0004366666666666659,0.06,-0.22,1.0,0.78,4.9,1.95
0.0004399999999999992,0.04,-0.22,1.0,-0.46,0.03,0.58
0.0004433333333333325,0.02,-0.23,1.01,-0.52,-3.5,-0.92
0.00044666666666666585,0.03,-0.23,0.99,-0.29,-4.99,-1.86
0.0004499999999999992,0.02,-0.22,0.98,0.99,-5.56,-4.49
0.0004533333333333325,0.03,-0.2,1.01,-0.31,-2.34,-5.48
0.0004566666666666658,0.05,-0.2,1.0,-0.67,-3.51,-5.66
0.00045999999999999915,0.04,-0.21,0.97,1.31,-8.21,-7.53
0.00046333333333333247,0.06,-0.21,1.04,-0.87,-9.04,-7.69
0.0004666666666666658,0.11,-0.19,1.01,-2.0,-5.88,-4.78
0.0004699999999999991,0.1,-0.2,0.98,-0.18,-7.69,-2.78
0.00047333333333333244,0.06,-0.2,1.0,-0.67,-7.1,-4.06
0.00047666666666666577,0.08,-0.19,1.02,-2.52,-1.04,-3.33
0.0004799999999999991,0.1,-0.19,0.99,-1.89,-1.68,-0.63
0.0004833333333333324,0.06,-0.21,0.98,-0.93,-7.8,-1.45
0.00048666666666666574,0.07,-0.2,0.99,0.15,-7.02,-1.13
0.0004899999999999991,0.1,-0.19,0.99,0.99,-1.56,-0.35
0.0004933333333333325,0.1,-0.19,0.99,0.08,1.11,1.18
0.0004966666666666659,0.08,-0.21,1.0,-0.53,2.69,1.88
0.0004999999999999993,0.05,-0.21,0.99,1.68,1.01,0.05
0.0005033333333333326,0.06,-0.21,1.0,1.36,1.66,-0.21
0.000506666666666666,0.05,-0.2,1.01,0.34,-0.15,-1.36
0.0005099999999999994,0.08,-0.19,1.03,-2.56,-0.44,-1.65
0.0005133333333333328,0.07,-0.19,1.0,-3.1,0.34,-2.21
0.0005166666666666661,0.07,-0.2,1.0,-2.21,-0.23,-2.41
0.0005199999999999995,0.06,-0.22,1.0,-1.3,-0.5,-4.03
0.0005233333333333329,0.08,-0.21,0.98,-0.58,1.27,-4.9
0.0005266666666666663,0.1,-0.2,1.0,-0.95,3.22,-3.36
0.0005299999999999997,0.1,-0.2,1.0,-0.44,1.56,-2.53
0.000533333333333333,0.07,-0.21,0.99,0.55,-2.43,-3.18
0.0005366666666666664,0.07,-0.22,1.0,0.67,-4.79,-3.91
0.0005399999999999998,0.1,-0.22,0.99,1.05,-3.16,-3.86
0.0005433333333333332,0.11,-0.22,0.99,0.72,-1.51,-4.09
0.0005466666666666665,0.12,-0.21,1.0,1.02,-0.63,-2.58
0.0005499999999999999,0.11,-0.21,1.0,0.66,-0.58,-1.57
0.0005533333333333333,0.1,-0.21,1.02,-0.23,-2.58,-1.97
0.0005566666666666667,0.09,-0.21,1.01,-1.18,-4.34,-2.35
0.0005600000000000001,0.09,-0.21,1.0,-2.17,-4.05,-3.8
0.0005633333333333334,0.12,-0.21,0.98,-1.82,-1.25,-2.5
0.0005666666666666668,0.1,-0.23,0.97,-0.11,0.85,-1.95
0.0005700000000000002,0.1,-0.21,0.97,1.91,2.18,-0.92
0.0005733333333333336,0.09,-0.22,0.97,3.68,0.4,-0.78
0.000576666666666667,0.07,-0.22,0.98,4.09,-0.76,-1.59
0.0005800000000000003,0.06,-0.22,1.01,2.61,-1.13,-2.72
0.0005833333333333337,0.1,-0.21,1.02,0.84,-1.4,-1.47
0.0005866666666666671,0.06,-0.22,1.01,-0.06,-4.37,-2.87
0.0005900000000000005,0.1,-0.22,1.0,-1.05,-3.02,-2.2
0.0005933333333333338,0.09,-0.21,0.99,-0.03,-1.68,-2.26
0.0005966666666666672,0.1,-0.2,1.0,-0.87,0.78,-1.76
0.0006000000000000006,0.11,-0.2,0.99,-0.9,3.31,0.37
0.000603333333333334,0.09,-0.2,0.99,0.26,1.3,0.9
0.0006066666666666674,0.08,-0.19,1.0,0.05,2.0,1.08
0.0006100000000000007,0.09,-0.19,1.0,-0.47,0.79,0.64
0.0006133333333333341,0.09,-0.2,0.98,0.93,0.49,-0.46
0.0006166666666666675,0.1,-0.21,1.0,0.03,2.18,-1.01
0.0006200000000000009,0.11,-0.19,0.99,0.56,2.73,0.98
0.0006233333333333342,0.1,-0.21,0.99,1.25,-1.19,1.31
0.0006266666666666676,0.1,-0.2,1.0,0.09,-0.06,1.44
0.000630000000000001,0.09,-0.2,0.98,1.77,0.93,1.24
0.0006333333333333344,0.11,-0.2,1.0,2.05,2.82,2.27
0.0006366666666666678,0.08,-0.21,1.0,1.57,-0.85,1.1
0.0006400000000000011,0.07,-0.2,0.99,1.37,-3.3,-0.14
0.0006433333333333345,0.09,-0.2,1.01,1.31,-1.3,-0.96
0.0006466666666666679,0.11,-0.19,1.0,1.85,1.15,0.06
0.0006500000000000013,0.1,-0.2,1.0,1.44,1.69,0.85
0.0006533333333333346,0.07,-0.2,1.0,0.67,-1.63,-0.93
0.000656666666666668,0.09,-0.2,0.99,1.57,0.05,-0.9
0.0006600000000000014,0.08,-0.2,1.0,0.95,1.54,-2.43
0.0006633333333333348,0.07,-0.19,0.99,0.75,1.68,-3.59
0.0006666666666666682,0.06,-0.19,0.99,1.71,-0.18,-4.73
0.0006700000000000015,0.06,-0.21,1.01,1.66,-1.04,-5.04
0.0006733333333333349,0.06,-0.2,1.0,2.53,-3.19,-7.65
0.0006766666666666683,0.1,-0.2,1.03,0.17,-0.63,-6.26
0.0006800000000000017,0.1,-0.21,1.01,-0.4,-1.82,-6.53
0.000683333333333335,0.08,-0.22,0.99,-0.32,-2.7,-7.22
0.0006866666666666684,0.1,-0.22,0.98,0.73,-1.18,-5.56
0.0006900000000000018,0.11,-0.21,1.0,0.7,0.78,-5.34
0.0006933333333333352,0.13,-0.2,0.99,-0.56,5.02,-2.32
0.0006966666666666686,0.12,-0.22,1.0,0.09,4.08,-1.83
0.0007000000000000019,0.1,-0.22,0.98,1.08,4.64,-1.08
0.0007033333333333353,0.05,-0.24,0.98,3.07,2.41,-3.04
0.0007066666666666687,0.05,-0.22,1.0,3.04,0.47,-5.53
0.0007100000000000021,0.07,-0.2,1.04,1.6,0.35,-6.53
0.0007133333333333355,0.09,-0.2,1.04,-1.82,-0.26,-6.31
0.0007166666666666688,0.1,-0.2,1.04,-4.11,-1.63,-7.36
0.0007200000000000022,0.11,-0.19,0.98,-2.95,0.93,-6.37
0.0007233333333333356,0.09,-0.2,0.99,-0.6,2.52,-6.02
0.000726666666666669,0.11,-0.17,0.99,-1.42,5.05,-3.69
0.0007300000000000023,0.1,-0.17,1.0,-1.1,2.82,-2.64
0.0007333333333333357,0.08,-0.17,0.98,0.72,2.0,-2.24
0.0007366666666666691,0.07,-0.19,0.97,3.1,1.53,-1.82
0.0007400000000000025,0.05,-0.19,0.99,3.83,-1.37,-3.69
0.0007433333333333359,0.07,-0.18,1.04,1.82,0.34,-2.38
0.0007466666666666692,0.08,-0.18,1.03,-0.29,-2.03,-2.06
0.0007500000000000026,0.07,-0.21,1.02,-2.05,-1.95,-1.82
0.000753333333333336,0.08,-0.21,0.97,-0.79,-0.93,-1.56
0.0007566666666666694,0.09,-0.2,0.98,1.83,2.18,-0.53
0.0007600000000000028,0.09,-0.19,0.98,1.37,1.1,-0.61
0.0007633333333333361,0.11,-0.21,0.98,1.08,2.29,1.89
0.0007666666666666695,0.07,-0.22,0.98,2.84,1.42,1.45
0.0007700000000000029,0.08,-0.2,0.99,3.63,1.57,1.44
0.0007733333333333363,0.07,-0.21,1.01,3.1,-0.23,0.09
0.0007766666666666696,0.07,-0.2,1.0,3.65,0.17,-0.58
0.000780000000000003,0.07,-0.2,1.02,2.03,1.82,-0.6
0.0007833333333333364,0.09,-0.21,0.99,2.73,3.45,0.12
0.0007866666666666698,0.09,-0.2,1.02,1.01,4.47,0.26
0.0007900000000000032,0.08,-0.2,1.0,1.53,4.21,0.44
0.0007933333333333365,0.07,-0.21,0.99,3.31,-0.66,-1.6
0.0007966666666666699,0.08,-0.19,1.01,1.3,-0.26,-0.99
0.0008000000000000033,0.1,-0.18,1.02,0.55,-0.37,-0.7
0.0008033333333333367,0.11,-0.18,1.01,-0.76,0.32,0.95
0.00080666666666667,0.1,-0.19,1.01,-0.99,0.85,2.4
0.0008100000000000034,0.1,-0.19,0.98,-0.03,1.94,2.7
0.0008133333333333368,0.1,-0.19,0.98,1.86,2.52,4.06
0.0008166666666666702,0.08,-0.2,0.98,3.66,1.88,3.8
0.0008200000000000036,0.05,-0.19,1.0,3.25,0.35,2.32
0.0008233333333333369,0.08,-0.17,1.04,1.65,-0.79,2.44
0.0008266666666666703,0.06,-0.18,1.04,-1.24,-6.7,-0.17
0.0008300000000000037,0.05,-0.2,1.03,-1.82,-9.76,-1.56
0.0008333333333333371,0.07,-0.2,0.99,-1.11,-10.2,-2.06
0.0008366666666666705,0.08,-0.21,0.98,1.5,-6.35,-1.69
0.0008400000000000038,0.11,-0.21,0.96,3.04,1.1,0.79
0.0008433333333333372,0.1,-0.2,0.97,5.04,3.02,2.5
0.0008466666666666706,0.09,-0.2,1.0,4.43,1.33,2.41
0.000850000000000004,0.07,-0.2,0.99,4.9,4.49,3.63
0.0008533333333333373,0.04,-0.2,0.99,6.96,0.52,1.91
0.0008566666666666707,0.02,-0.2,0.99,8.2,0.49,-1.1
0.0008600000000000041,0.05,-0.19,0.97,10.2,1.83,-3.54
0.0008633333333333375,0.06,-0.18,0.98,14.37,2.99,-4.92
0.0008666666666666709,0.07,-0.16,1.03,15.08,1.56,-5.59
0.0008700000000000042,0.04,-0.14,1.07,10.29,-2.46,-6.66
0.0008733333333333376,0.05,-0.1,1.08,9.11,-17.63,-11.1
0.000876666666666671,0.11,-0.15,1.03,4.41,-5.5,-5.92
0.0008800000000000044,0.13,-0.15,1.05,-1.07,5.59,-1.19
0.0008833333333333377,0.07,-0.18,0.96,3.5,3.76,-4.41
0.0008866666666666711,0.08,-0.16,0.95,5.53,2.85,-5.42
0.0008900000000000045,0.08,-0.17,1.01,5.31,-3.27,-5.4
0.0008933333333333379,0.09,-0.16,1.01,5.3,-2.67,-4.34
0.0008966666666666713,0.12,-0.15,1.04,3.19,-0.73,-3.16
0.0009000000000000046,0.11,-0.15,1.03,1.04,0.34,-2.29
0.000903333333333338,0.11,-0.16,1.01,0.12,2.43,-0.37
0.0009066666666666714,0.11,-0.16,1.0,3.16,2.06,1.07
0.0009100000000000048,0.1,-0.16,0.99,4.11,3.66,2.72
0.0009133333333333382,0.07,-0.16,0.98,5.82,-0.17,0.98
0.0009166666666666715,0.06,-0.15,0.99,7.21,-5.54,-1.91
0.0009200000000000049,0.02,-0.14,1.04,6.12,-18.14,-8.61
0.0009233333333333383,0.02,-0.13,1.05,5.98,-31.98,-14.46
0.0009266666666666717,0.03,-0.17,1.03,5.3,-41.18,-18.95
0.000930000000000005,0.09,-0.16,0.99,8.29,-39.85,-19.3
0.0009333333333333384,0.16,-0.16,0.93,21.15,-25.51,-14.43
0.0009366666666666718,0.21,-0.11,0.93,20.43,-7.5,-6.58
0.0009400000000000052,0.18,-0.12,0.94,21.65,0.76,-1.13
0.0009433333333333386,0.16,-0.13,1.05,19.82,2.02,1.11
0.0009466666666666719,0.13,-0.13,1.12,11.01,-3.39,0.09
0.0009500000000000053,0.13,-0.13,1.1,2.2,-1.71,1.18
0.0009533333333333387,0.15,-0.14,1.0,0.61,0.23,1.88
0.0009566666666666721,0.14,-0.13,0.96,5.97,0.44,1.69
0.0009600000000000054,0.16,-0.14,0.99,6.61,7.27,4.06
0.0009633333333333388,0.14,-0.13,0.99,6.7,7.24,4.34
0.0009666666666666722,0.1,-0.14,1.03,4.92,1.57,2.72
0.0009700000000000056,0.07,-0.16,1.07,2.21,-9.04,-3.47
0.000973333333333339,0.06,-0.13,1.09,-4.89,-22.11,-10.63
0.0009766666666666723,0.08,-0.11,1.08,-12.11,-32.08,-15.57
0.0009800000000000056,0.12,-0.12,1.04,-7.44,-35.68,-14.67
