time,accl_x,accl_y,accl_z,gyro_x,gyro_y,gyro_z
0.0,-0.03,-0.09,1.03,-4.21,0.15,3.1
3.3333333333333333e-06,-0.02,-0.09,1.02,-3.66,1.62,3.08
6.666666666666667e-06,-0.01,-0.09,1.0,-2.82,1.34,4.63
9.999999999999999e-06,-0.02,-0.08,0.99,-0.46,1.8,5.21
1.3333333333333333e-05,-0.02,-0.08,0.98,2.67,-0.55,5.1
1.6666666666666667e-05,-0.01,-0.07,1.02,0.58,1.59,5.19
2e-05,-0.03,-0.07,1.05,-1.53,2.67,5.3
2.3333333333333336e-05,-0.02,-0.07,1.03,-1.59,2.53,4.85
2.666666666666667e-05,-0.04,-0.09,1.04,-2.44,1.76,3.77
3.0000000000000004e-05,-0.06,-0.1,1.02,-1.73,-1.65,1.65
3.3333333333333335e-05,-0.04,-0.09,0.99,0.38,0.03,2.2
3.6666666666666666e-05,-0.03,-0.09,1.0,1.77,1.3,3.21
3.9999999999999996e-05,-0.06,-0.09,0.99,1.63,-0.35,1.36
4.333333333333333e-05,-0.04,-0.1,1.07,-1.79,-2.49,0.7
4.666666666666666e-05,-0.05,-0.11,1.05,-3.57,-4.98,-0.4
4.999999999999999e-05,-0.06,-0.1,1.04,-4.89,-7.45,-3.27
5.333333333333332e-05,-0.04,-0.09,1.01,-4.2,-6.23,-3.16
5.666666666666665e-05,-0.03,-0.09,1.01,-3.27,-6.66,-3.11
5.999999999999998e-05,-0.02,-0.09,1.0,-2.76,-7.92,-2.17
6.333333333333332e-05,-0.01,-0.1,0.99,-2.17,-6.09,-1.28
6.666666666666666e-05,-0.01,-0.09,1.03,-3.91,-3.05,-0.02
7e-05,-0.02,-0.09,1.01,-3.95,-5.11,-1.31
7.333333333333333e-05,-0.02,-0.11,1.04,-4.78,-4.84,-0.67
7.666666666666667e-05,-0.01,-0.1,1.01,-4.82,-6.41,0.03
8e-05,-0.02,-0.1,1.02,-4.23,-6.0,-0.05
8.333333333333334e-05,-0.02,-0.1,1.01,-4.15,-6.5,0.05
8.666666666666668e-05,-0.02,-0.1,1.03,-5.19,-9.21,-0.49
9.000000000000002e-05,-0.01,-0.11,1.03,-6.7,-11.86,-1.91
9.333333333333336e-05,-0.04,-0.11,1.04,-8.73,-14.64,-5.73
9.66666666666667e-05,-0.04,-0.12,1.05,-10.43,-18.99,-10.81
0.00010000000000000003,-0.06,-0.14,1.08,-14.89,-26.09,-19.3
0.00010333333333333337,-0.02,-0.12,1.06,-18.92,-30.72,-22.89
0.00010666666666666671,0.09,-0.08,0.99,-17.59,-21.82,-12.95
0.00011000000000000004,0.11,-0.07,0.96,-12.08,-11.85,-2.73
0.00011333333333333338,0.06,-0.1,0.96,-4.96,-5.6,1.39
0.00011666666666666672,0.05,-0.12,0.99,-3.39,1.08,4.29
0.00012000000000000006,0.03,-0.13,0.96,-1.36,2.06,4.37
0.0001233333333333334,0.02,-0.13,0.99,-0.37,1.74,4.27
0.00012666666666666672,0.02,-0.12,1.0,0.09,3.82,4.52
0.00013000000000000004,0.02,-0.13,1.01,0.21,4.14,4.93
0.00013333333333333337,0.0,-0.14,1.02,-0.47,1.15,4.44
0.0001366666666666667,0.01,-0.14,1.02,-0.02,2.32,4.27
0.00014000000000000001,0.02,-0.14,1.01,0.72,4.21,5.66
0.00014333333333333334,0.02,-0.13,1.0,2.11,6.15,6.52
0.00014666666666666666,-0.0,-0.12,0.99,3.59,4.78,5.68
0.00015,-0.02,-0.14,1.03,1.79,1.88,2.7
0.0001533333333333333,-0.0,-0.13,1.01,0.64,2.87,2.44
0.00015666666666666663,-0.0,-0.13,0.99,1.33,4.46,2.44
0.00015999999999999996,0.01,-0.14,0.99,2.7,5.42,4.49
0.00016333333333333328,0.02,-0.14,0.99,5.16,6.75,6.78
0.0001666666666666666,-0.01,-0.15,1.0,6.12,2.03,3.8
0.00016999999999999993,-0.02,-0.14,0.98,7.36,0.5,1.15
0.00017333333333333325,-0.01,-0.13,1.01,8.09,-0.23,-1.08
0.00017666666666666658,0.02,-0.12,1.01,7.56,3.79,-0.46
0.0001799999999999999,0.0,-0.12,1.04,3.3,3.74,-2.99
0.00018333333333333323,0.0,-0.11,1.05,-0.35,0.6,-2.05
0.00018666666666666655,0.03,-0.1,1.03,-0.31,1.15,1.51
0.00018999999999999987,0.01,-0.12,1.02,-0.76,2.12,1.8
0.0001933333333333332,0.01,-0.12,1.01,-0.93,4.67,1.82
0.00019666666666666652,0.01,-0.11,1.01,0.64,6.02,3.39
0.00019999999999999985,0.01,-0.1,1.03,-0.02,6.46,4.72
0.00020333333333333317,0.03,-0.08,1.02,0.29,5.94,7.07
0.0002066666666666665,-0.02,-0.09,1.06,-2.46,7.21,5.01
0.00020999999999999982,0.0,-0.09,1.07,-5.97,10.23,5.28
0.00021333333333333314,-0.01,-0.1,1.06,-5.86,2.92,3.13
0.00021666666666666647,0.03,-0.07,1.02,-3.66,3.25,6.7
0.0002199999999999998,0.02,-0.08,1.03,-4.96,4.29,8.29
0.00022333333333333311,0.0,-0.09,1.01,-6.99,6.64,9.3
0.00022666666666666644,-0.0,-0.09,0.99,-4.12,3.59,9.16
0.00022999999999999976,-0.0,-0.11,0.98,-2.58,3.77,8.14
0.0002333333333333331,-0.03,-0.12,1.0,-2.85,4.11,6.18
0.0002366666666666664,-0.04,-0.13,1.0,-2.56,0.87,3.47
0.00023999999999999974,-0.04,-0.13,0.99,-0.05,-3.66,2.09
0.00024333333333333306,-0.04,-0.12,1.01,-0.56,-5.53,2.46
0.0002466666666666664,-0.04,-0.13,1.05,-3.34,-7.02,2.53
0.00024999999999999973,-0.03,-0.13,1.03,-3.71,-3.6,3.54
0.00025333333333333306,-0.05,-0.14,1.01,-1.44,-0.67,3.4
0.0002566666666666664,-0.06,-0.16,0.98,0.38,-1.83,0.6
0.0002599999999999997,-0.05,-0.16,1.0,0.24,-7.1,-1.65
0.00026333333333333303,-0.05,-0.16,0.96,1.98,-7.45,-4.84
0.00026666666666666635,-0.05,-0.15,1.01,1.3,-7.73,-6.02
0.0002699999999999997,0.0,-0.12,1.03,-1.66,-6.84,-4.27
0.000273333333333333,-0.02,-0.14,1.01,-1.48,-6.2,-3.89
0.0002766666666666663,-0.01,-0.15,1.02,-1.77,-4.61,-4.4
0.00027999999999999965,-0.01,-0.14,0.99,-0.15,-3.5,-4.67
0.000283333333333333,-0.01,-0.14,0.98,1.31,-3.24,-4.79
0.0002866666666666663,0.0,-0.13,0.99,0.92,-4.96,-5.11
0.0002899999999999996,0.0,-0.13,0.99,1.45,-5.63,-5.15
0.00029333333333333295,0.01,-0.12,0.99,2.69,-6.61,-5.86
0.00029666666666666627,0.0,-0.12,1.0,3.21,-5.51,-6.67
0.0002999999999999996,0.05,-0.11,1.02,2.15,-2.29,-3.8
0.0003033333333333329,0.04,-0.11,1.04,0.79,0.64,-2.09
0.00030666666666666624,0.03,-0.1,1.05,-0.35,0.99,-0.63
0.00030999999999999957,0.01,-0.13,1.04,-0.29,-1.5,-1.45
0.0003133333333333329,0.02,-0.12,1.01,-0.96,-2.52,-2.27
0.0003166666666666662,0.02,-0.12,1.03,-1.22,-3.37,-1.77
0.00031999999999999954,0.01,-0.13,1.0,0.32,-4.09,-2.18
0.00032333333333333286,0.02,-0.13,0.99,2.46,-4.44,-1.97
0.0003266666666666662,0.0,-0.15,0.99,5.62,-8.05,-3.54
0.0003299999999999995,-0.02,-0.15,1.0,10.32,-10.55,-6.52
0.00033333333333333283,-0.02,-0.14,1.01,4.2,-9.83,-10.38
0.00033666666666666616,0.03,-0.12,1.01,3.63,-6.03,-8.4
0.0003399999999999995,0.04,-0.13,1.02,1.27,-2.76,-5.63
0.0003433333333333328,0.05,-0.12,1.02,1.62,-0.73,-3.24
0.00034666666666666613,0.04,-0.13,1.02,1.36,1.48,-2.03
0.00034999999999999945,0.0,-0.13,1.03,1.28,-1.22,-3.91
0.0003533333333333328,0.01,-0.12,1.02,-0.21,-0.35,-3.8
0.0003566666666666661,0.02,-0.12,1.02,-1.04,-1.95,-3.37
0.0003599999999999994,0.04,-0.11,1.0,-0.72,0.63,-0.41
0.00036333333333333275,0.02,-0.11,1.01,-0.55,1.8,0.02
0.0003666666666666661,0.0,-0.11,1.02,-0.46,0.7,-1.08
0.0003699999999999994,-0.0,-0.11,1.03,-1.44,-0.89,-2.73
0.0003733333333333327,-0.0,-0.11,1.02,-1.54,-2.26,-4.84
0.00037666666666666605,-0.0,-0.11,1.03,-1.77,-1.97,-5.27
0.00037999999999999937,0.02,-0.1,1.0,-2.58,-3.34,-4.32
0.0003833333333333327,0.03,-0.11,1.01,-1.85,-3.04,-3.76
0.000386666666666666,0.02,-0.11,1.01,-0.9,-3.37,-2.92
0.00038999999999999934,0.03,-0.11,1.03,-2.23,-1.11,-2.26
0.00039333333333333267,0.02,-0.11,1.02,-1.69,-0.89,-2.82
0.000396666666666666,0.02,-0.12,1.02,-2.52,0.75,-3.27
0.0003999999999999993,0.02,-0.12,1.02,-2.38,-1.56,-3.31
0.00040333333333333264,0.02,-0.12,1.02,-2.56,-2.09,-3.21
0.00040666666666666596,0.01,-0.12,1.01,-2.31,-4.26,-4.72
0.0004099999999999993,0.03,-0.11,1.02,-1.8,-4.09,-4.5
0.0004133333333333326,0.04,-0.11,1.02,-2.41,-1.89,-3.13
0.00041666666666666593,0.05,-0.11,1.01,-3.5,-0.82,-1.88
0.00041999999999999926,0.02,-0.12,1.02,-3.62,-2.63,-2.46
0.0004233333333333326,0.0,-0.13,0.98,-1.74,-1.34,-3.76
0.0004266666666666659,0.03,-0.12,1.0,-0.9,-1.69,-3.34
0.00042999999999999923,0.03,-0.14,1.0,-0.53,-1.05,-4.31
0.00043333333333333255,0.02,-0.12,1.01,-0.72,-1.83,-4.44
0.0004366666666666659,0.02,-0.12,1.03,-1.83,-3.24,-4.53
0.0004399999999999992,0.04,-0.13,1.03,-2.95,-1.02,-3.21
0.0004433333333333325,0.0,-0.14,1.03,-3.19,-5.18,-6.37
0.00044666666666666585,0.03,-0.13,1.0,-3.02,-3.94,-6.72
0.0004499999999999992,0.03,-0.13,0.99,-2.17,-3.28,-5.92
0.0004533333333333325,0.07,-0.11,0.97,0.18,-0.08,-2.53
0.0004566666666666658,0.06,-0.13,0.99,0.56,-0.69,-0.75
0.00045999999999999915,0.06,-0.13,1.0,-0.11,-1.6,0.11
0.00046333333333333247,0.04,-0.13,1.01,0.06,-1.77,0.24
0.0004666666666666658,0.04,-0.13,1.01,1.37,0.99,-0.27
0.0004699999999999991,0.04,-0.12,1.03,0.12,0.4,0.14
0.00047333333333333244,0.04,-0.13,1.03,-1.15,-1.19,-0.81
0.00047666666666666577,0.04,-0.13,1.03,-0.64,-1.53,-1.59
0.0004799999999999991,0.04,-0.13,1.03,-1.08,-4.2,-3.51
0.0004833333333333324,0.04,-0.13,1.0,-0.82,-6.84,-4.17
0.00048666666666666574,0.01,-0.14,0.99,0.78,-9.31,-6.14
0.0004899999999999991,0.05,-0.13,1.01,-0.73,-7.19,-4.79
0.0004933333333333325,0.08,-0.12,0.99,-0.84,-4.21,-1.71
0.0004966666666666659,0.05,-0.13,1.01,-0.11,-1.85,-1.48
0.0004999999999999993,0.06,-0.13,1.02,-0.75,-0.38,-0.2
0.0005033333333333326,0.04,-0.13,1.04,-1.98,-2.34,-1.1
0.000506666666666666,0.05,-0.11,1.0,-0.49,-3.07,-0.95
0.0005099999999999994,0.05,-0.11,1.03,-0.95,-2.67,-0.6
0.0005133333333333328,0.04,-0.11,1.02,-1.16,-3.15,-0.87
0.0005166666666666661,0.05,-0.12,1.02,-1.59,-2.11,-0.98
0.0005199999999999995,0.05,-0.11,0.98,0.05,-0.08,0.5
0.0005233333333333329,0.04,-0.11,0.99,-1.11,-2.75,0.08
0.0005266666666666663,0.04,-0.11,1.0,0.78,-3.36,-0.31
0.0005299999999999997,0.05,-0.12,0.97,2.34,1.76,-0.23
0.000533333333333333,0.03,-0.12,1.02,1.53,-1.89,-1.95
0.0005366666666666664,0.02,-0.12,1.03,0.37,-3.37,-3.33
0.0005399999999999998,0.04,-0.12,1.04,-1.11,-6.2,-4.2
0.0005433333333333332,0.05,-0.12,1.04,-1.07,-7.04,-3.59
0.0005466666666666665,0.05,-0.13,1.03,-3.6,-10.56,-2.44
0.0005499999999999999,0.07,-0.13,1.01,-2.23,-4.49,-1.68
0.0005533333333333333,0.06,-0.13,1.0,-0.98,-3.42,-1.04
0.0005566666666666667,0.06,-0.12,0.99,0.63,0.9,-0.52
0.0005600000000000001,0.05,-0.13,1.01,1.04,-1.39,-1.65
0.0005633333333333334,0.05,-0.12,1.04,-0.5,-1.56,-1.25
0.0005666666666666668,0.04,-0.13,1.04,-2.82,-5.71,-2.85
0.0005700000000000002,0.06,-0.13,1.02,-4.23,-5.48,-2.75
0.0005733333333333336,0.08,-0.13,0.96,-2.55,-0.93,-1.16
0.000576666666666667,0.07,-0.13,0.99,-2.58,-4.79,-1.39
0.0005800000000000003,0.07,-0.14,0.98,-0.18,-2.76,-0.11
0.0005833333333333337,0.07,-0.12,1.01,0.81,-4.08,0.06
0.0005866666666666671,0.07,-0.12,1.02,1.11,-1.02,0.12
0.0005900000000000005,0.1,-0.11,1.05,0.41,2.5,2.06
0.0005933333333333338,0.07,-0.11,1.03,-0.92,1.11,1.97
0.0005966666666666672,0.07,-0.12,1.05,-1.45,-2.82,1.59
0.0006000000000000006,0.06,-0.13,1.06,-4.82,-8.02,1.02
0.000603333333333334,0.08,-0.13,1.0,-5.21,-7.5,0.95
0.0006066666666666674,0.07,-0.12,0.98,-2.76,-2.61,1.94
0.0006100000000000007,0.06,-0.13,0.98,-0.35,-2.53,0.7
0.0006133333333333341,0.06,-0.13,0.98,1.57,-0.89,1.47
0.0006166666666666675,0.06,-0.12,1.0,1.77,-0.02,0.79
0.0006200000000000009,0.07,-0.12,1.02,0.21,0.14,1.98
0.0006233333333333342,0.04,-0.14,1.03,-1.02,-2.75,0.35
0.0006266666666666676,0.06,-0.14,1.04,-2.87,-1.83,0.63
0.000630000000000001,0.07,-0.14,1.03,-3.1,-3.1,0.08
0.0006333333333333344,0.06,-0.14,1.01,-2.24,-3.21,-0.95
0.0006366666666666678,0.06,-0.15,0.98,0.09,-2.11,-2.06
0.0006400000000000011,0.07,-0.14,0.96,1.37,0.29,-2.17
0.0006433333333333345,0.11,-0.13,0.99,1.25,4.93,0.84
0.0006466666666666679,0.13,-0.12,0.99,-0.26,10.73,4.17
0.0006500000000000013,0.09,-0.14,1.02,-2.32,10.43,4.64
0.0006533333333333346,0.06,-0.14,1.02,-2.7,6.44,3.82
0.000656666666666668,0.04,-0.15,1.03,-3.59,0.78,1.69
0.0006600000000000014,0.02,-0.14,1.02,-2.29,4.21,0.98
0.0006633333333333348,0.06,-0.13,1.03,-4.41,2.99,1.85
0.0006666666666666682,0.05,-0.13,1.05,-6.32,0.6,1.51
0.0006700000000000015,0.06,-0.14,1.04,-7.56,-0.7,1.45
0.0006733333333333349,0.04,-0.13,1.0,-7.07,-0.67,0.12
0.0006766666666666683,0.06,-0.13,0.98,-4.95,-0.98,-0.37
0.0006800000000000017,0.04,-0.12,1.0,-7.37,-9.21,-3.4
0.000683333333333335,-0.03,-0.13,1.1,-5.47,-1.77,-2.41
0.0006866666666666684,0.06,-0.14,1.04,-7.25,-3.18,-3.73
0.0006900000000000018,0.02,-0.12,1.06,-8.78,-3.01,-3.57
0.0006933333333333352,0.05,-0.13,1.01,-6.21,-6.72,-3.63
0.0006966666666666686,0.06,-0.13,0.98,-4.18,-6.02,-2.75
0.0007000000000000019,0.06,-0.15,1.01,-3.57,-5.21,-1.82
0.0007033333333333353,0.06,-0.14,1.03,-3.47,-2.49,-1.07
0.0007066666666666687,0.1,-0.12,1.0,-4.38,-0.41,1.66
0.0007100000000000021,0.1,-0.13,1.03,-6.72,-1.85,3.11
0.0007133333333333355,0.08,-0.14,1.03,-5.85,-3.01,3.68
0.0007166666666666688,0.06,-0.15,1.01,-4.66,-5.85,2.85
0.0007200000000000022,0.06,-0.15,0.98,-3.42,-7.21,0.81
0.0007233333333333356,0.04,-0.16,0.99,-2.56,-8.75,-1.3
0.000726666666666669,0.08,-0.14,1.0,-2.73,-7.21,-1.33
0.0007300000000000023,0.1,-0.15,1.0,-3.76,-5.59,0.63
0.0007333333333333357,0.11,-0.14,0.98,-2.0,1.34,3.71
0.0007366666666666691,0.08,-0.16,1.01,-2.38,0.12,3.45
0.0007400000000000025,0.06,-0.16,1.01,-4.61,3.53,4.0
0.0007433333333333359,0.08,-0.16,1.0,-3.6,6.79,5.07
0.0007466666666666692,0.08,-0.16,1.01,-3.13,5.98,7.05
0.0007500000000000026,0.08,-0.16,1.04,-4.92,7.79,7.48
0.000753333333333336,0.04,-0.18,1.03,-4.78,2.76,4.89
0.0007566666666666694,0.03,-0.19,1.01,-4.15,-1.22,0.4
0.0007600000000000028,0.03,-0.17,1.0,-4.02,-3.74,-1.91
0.0007633333333333361,0.04,-0.17,0.99,-3.71,-4.43,-3.63
0.0007666666666666695,0.06,-0.16,1.0,-3.83,-7.01,-4.52
0.0007700000000000029,0.06,-0.16,0.98,-1.66,-6.49,-4.49
0.0007733333333333363,0.08,-0.17,0.98,-1.11,-6.34,-3.85
0.0007766666666666696,0.07,-0.17,1.01,-2.56,-4.76,-1.76
0.000780000000000003,0.07,-0.17,1.01,-2.27,-4.53,-1.07
0.0007833333333333364,0.05,-0.18,1.03,-3.36,-8.64,-2.15
0.0007866666666666698,0.07,-0.17,0.99,-2.84,-5.25,-1.45
0.0007900000000000032,0.07,-0.17,1.01,-2.05,-2.31,-1.82
0.0007933333333333365,0.07,-0.17,0.99,-0.99,-3.27,-2.08
0.0007966666666666699,0.07,-0.17,1.0,-1.68,-5.95,-2.85
0.0008000000000000033,0.08,-0.16,0.98,-0.79,-4.98,-2.58
0.0008033333333333367,0.09,-0.16,1.0,-0.78,-4.79,-0.53
0.00080666666666667,0.07,-0.16,0.99,0.35,-6.12,-1.83
0.0008100000000000034,0.06,-0.17,0.99,0.78,-6.75,-3.33
0.0008133333333333368,0.07,-0.16,0.98,1.63,-4.02,-4.49
0.0008166666666666702,0.08,-0.16,1.01,1.39,-2.12,-4.32
0.0008200000000000036,0.09,-0.16,1.02,0.66,-2.53,-3.88
0.0008233333333333369,0.09,-0.16,1.02,0.35,-3.07,-3.33
0.0008266666666666703,0.06,-0.16,1.02,1.11,-7.79,-5.74
0.0008300000000000037,0.09,-0.15,1.0,2.4,-8.98,-6.49
0.0008333333333333371,0.1,-0.16,0.98,4.02,-9.79,-7.15
0.0008366666666666705,0.09,-0.16,0.98,4.69,-9.59,-8.31
0.0008400000000000038,0.15,-0.13,0.98,4.6,-3.33,-3.77
0.0008433333333333372,0.13,-0.14,0.99,4.73,-4.5,-1.89
0.0008466666666666706,0.11,-0.15,1.01,2.66,-1.89,-1.54
0.000850000000000004,0.11,-0.15,1.01,2.43,-3.13,-0.76
0.0008533333333333373,0.08,-0.16,1.03,1.6,-3.33,-2.9
0.0008566666666666707,0.1,-0.15,1.02,1.8,-4.21,-3.31
0.0008600000000000041,0.09,-0.17,1.01,1.57,-4.92,-4.53
0.0008633333333333375,0.1,-0.16,1.0,2.27,-4.21,-3.6
0.0008666666666666709,0.11,-0.14,1.02,0.89,-3.25,-3.44
0.0008700000000000042,0.1,-0.16,1.05,-2.55,-2.53,-2.85
0.0008733333333333376,0.12,-0.17,1.0,-1.94,-0.6,-1.54
0.000876666666666671,0.1,-0.18,1.0,-1.34,-2.09,-2.23
0.0008800000000000044,0.08,-0.19,0.99,0.58,-2.53,-3.66
0.0008833333333333377,0.08,-0.18,1.0,0.52,-3.54,-5.24
0.0008866666666666711,0.09,-0.16,1.01,-0.66,-4.46,-5.37
0.0008900000000000045,0.11,-0.15,1.0,-0.72,-5.98,-4.69
0.0008933333333333379,0.11,-0.16,1.01,-0.92,-5.08,-4.95
0.0008966666666666713,0.11,-0.16,1.01,-1.85,-4.35,-4.41
0.0009000000000000046,0.11,-0.17,0.97,0.06,-2.23,-4.05
0.000903333333333338,0.11,-0.17,0.98,1.68,-3.53,-4.55
0.0009066666666666714,0.09,-0.17,0.99,0.9,-6.9,-6.67
0.0009100000000000048,0.12,-0.15,0.98,0.99,-4.84,-5.89
0.0009133333333333382,0.13,-0.16,1.0,0.7,-4.2,-5.13
0.0009166666666666715,0.13,-0.15,1.01,0.82,-3.73,-4.47
0.0009200000000000049,0.14,-0.15,1.0,0.41,-4.14,-3.65
0.0009233333333333383,0.15,-0.16,1.02,-0.75,-2.76,-0.93
0.0009266666666666717,0.12,-0.16,0.99,0.47,-4.55,-2.38
0.000930000000000005,0.13,-0.16,1.01,-0.61,-0.55,-1.76
0.0009333333333333384,0.13,-0.16,1.0,-0.12,-2.61,-1.69
0.0009366666666666718,0.12,-0.17,0.98,1.98,-1.18,-1.21
0.0009400000000000052,0.1,-0.18,1.01,-0.38,-4.02,-1.68
0.0009433333333333386,0.11,-0.19,0.99,-0.82,-3.91,-2.47
0.0009466666666666719,0.1,-0.2,0.98,0.08,-3.18,-3.5
0.0009500000000000053,0.1,-0.2,1.0,-0.14,-4.23,-5.53
0.0009533333333333387,0.1,-0.18,1.01,-0.78,-4.21,-6.6
0.0009566666666666721,0.12,-0.17,1.0,-0.98,-4.64,-7.34
0.0009600000000000054,0.15,-0.17,1.01,-2.37,-1.65,-6.15
0.0009633333333333388,0.15,-0.16,1.0,-0.78,0.0,-6.05
0.0009666666666666722,0.16,-0.17,0.99,0.73,1.3,-5.04
0.0009700000000000056,0.14,-0.16,1.01,0.37,-1.53,-5.33
0.000973333333333339,0.14,-0.15,1.01,0.37,-3.92,-4.95
0.0009766666666666723,0.13,-0.15,0.99,1.18,-4.24,-5.86
