time,acce_x,acce_y,acce_z,gyro_x,gyro_y,gyro_z
0.0,0.1,-0.45,0.89,-12.44,-9.27,-10.99
3.3333333333333333e-06,0.13,-0.47,0.89,-9.27,-3.65,-9.19
6.666666666666667e-06,0.1,-0.48,0.91,-4.99,-8.18,-5.92
9.999999999999999e-06,0.06,-0.49,0.97,-6.02,-18.67,-3.94
1.3333333333333333e-05,0.08,-0.48,0.94,-8.21,-19.74,-5.73
1.6666666666666667e-05,0.1,-0.46,0.97,-10.79,-22.43,-5.86
2e-05,0.08,-0.47,0.92,-12.56,-21.3,-9.27
2.3333333333333336e-05,0.13,-0.43,0.91,-12.7,-15.33,-10.79
2.666666666666667e-05,0.17,-0.4,0.94,-13.66,-14.34,-4.89
3.0000000000000004e-05,0.18,-0.41,0.91,-14.41,-10.93,1.85
3.3333333333333335e-05,0.14,-0.45,0.84,-11.02,-5.53,-0.49
3.6666666666666666e-05,0.09,-0.47,0.84,-4.7,-1.25,-2.78
3.9999999999999996e-05,0.03,-0.47,0.86,-0.43,-10.79,-5.21
4.333333333333333e-05,0.07,-0.43,0.93,-1.39,-19.82,-5.11
4.666666666666666e-05,0.12,-0.42,0.87,-3.24,-17.76,-5.68
4.999999999999999e-05,0.12,-0.44,0.89,-4.03,-20.75,-4.58
5.333333333333332e-05,0.19,-0.43,0.86,-5.94,-13.42,-2.58
5.666666666666665e-05,0.18,-0.45,0.78,1.02,-3.34,-2.56
5.999999999999998e-05,0.16,-0.47,0.81,5.44,5.21,-4.75
6.333333333333332e-05,0.13,-0.48,0.84,11.57,7.94,-6.53
6.666666666666666e-05,0.15,-0.43,0.95,13.45,-2.11,-1.91
7e-05,0.13,-0.43,0.97,10.53,-5.65,0.5
7.333333333333333e-05,0.13,-0.47,0.93,11.01,-2.35,-1.18
7.666666666666667e-05,0.14,-0.46,0.94,7.37,1.74,-2.66
8e-05,0.11,-0.46,0.93,10.02,1.28,-2.96
8.333333333333334e-05,0.12,-0.44,0.9,13.16,2.21,-3.18
8.666666666666668e-05,0.13,-0.43,0.95,13.37,4.49,-3.04
9.000000000000002e-05,0.13,-0.42,1.02,5.88,1.71,-1.04
9.333333333333336e-05,0.12,-0.43,0.98,2.29,6.93,-1.76
9.66666666666667e-05,0.09,-0.45,0.92,6.08,4.46,-3.15
0.00010000000000000003,0.12,-0.46,0.91,9.62,6.75,-3.53
0.00010333333333333337,0.12,-0.45,0.94,9.07,9.37,-3.19
0.00010666666666666671,0.08,-0.43,0.94,7.4,10.5,-5.33
0.00011000000000000004,0.1,-0.42,0.93,7.8,15.54,-6.49
0.00011333333333333338,0.1,-0.42,0.97,5.07,12.9,-3.98
0.00011666666666666672,0.08,-0.43,0.92,6.53,6.78,-4.11
0.00012000000000000006,0.06,-0.43,0.91,5.39,7.05,-6.58
0.0001233333333333334,0.06,-0.43,0.95,5.71,-1.53,-6.08
0.00012666666666666672,0.09,-0.41,0.9,7.24,-2.35,-5.77
0.00013000000000000004,0.09,-0.42,0.89,9.77,-0.9,-5.1
0.00013333333333333337,0.13,-0.42,0.87,12.2,7.3,-5.36
0.0001366666666666667,0.1,-0.41,0.91,12.92,8.6,-5.11
0.00014000000000000001,0.09,-0.41,0.93,12.2,9.37,-4.96
0.00014333333333333334,0.07,-0.39,0.99,7.13,1.57,-5.94
0.00014666666666666666,0.1,-0.4,0.93,8.08,3.05,-7.44
0.00015,0.09,-0.4,0.94,6.15,3.85,-8.52
0.0001533333333333333,0.09,-0.4,0.92,9.77,4.41,-8.58
0.00015666666666666663,0.1,-0.41,0.94,12.67,-2.23,-7.28
0.00015999999999999996,0.13,-0.41,0.89,16.82,1.95,-8.2
0.00016333333333333328,0.15,-0.39,0.94,16.12,5.28,-5.86
0.0001666666666666666,0.09,-0.4,0.96,13.98,5.5,-8.09
0.00016999999999999993,0.11,-0.38,1.01,7.24,3.42,-7.18
0.00017333333333333325,0.1,-0.37,0.99,8.92,-7.22,-4.47
0.00017666666666666658,0.12,-0.39,0.94,11.74,-5.59,-4.72
0.0001799999999999999,0.15,-0.39,0.93,13.22,2.12,-4.99
0.00018333333333333323,0.15,-0.37,0.91,13.63,9.91,-4.6
0.00018666666666666655,0.14,-0.36,0.93,12.05,18.15,-5.07
0.00018999999999999987,0.1,-0.36,1.05,0.81,19.92,-6.63
0.0001933333333333332,0.05,-0.36,1.03,-6.12,18.27,-7.62
0.00019666666666666652,0.06,-0.37,0.92,-0.37,3.33,-4.14
0.00019999999999999985,0.06,-0.4,0.85,10.64,-3.54,-4.43
0.00020333333333333317,0.1,-0.4,0.86,13.79,8.41,-7.71
0.0002066666666666665,-0.03,-0.65,0.88,16.79,15.79,-7.6
0.00020999999999999982,0.06,-0.36,0.98,17.82,6.24,-2.85
0.00021333333333333314,0.04,-0.37,0.96,20.43,-4.21,-9.95
0.00021666666666666647,0.12,-0.36,1.01,17.15,-4.0,-8.69
0.0002199999999999998,0.15,-0.35,1.03,10.31,1.4,-5.95
0.00022333333333333311,0.07,-0.34,0.97,10.32,0.11,-5.74
0.00022666666666666644,0.04,-0.36,0.92,14.93,-1.51,-10.43
0.00022999999999999976,0.01,-0.35,1.0,12.06,2.66,-18.95
0.0002333333333333331,0.09,-0.34,0.99,10.11,6.93,-19.28
0.0002366666666666664,0.12,-0.33,1.04,10.52,-2.06,-16.06
0.00023999999999999974,0.14,-0.31,1.02,8.09,-4.0,-11.3
0.00024333333333333306,0.14,-0.3,0.99,4.93,0.95,-8.95
0.0002466666666666664,0.09,-0.33,0.94,10.2,-1.19,-8.95
0.00024999999999999973,0.14,-0.33,1.0,6.63,0.29,-6.85
0.00025333333333333306,0.09,-0.34,0.96,6.14,2.38,-8.93
0.0002566666666666664,0.16,-0.33,0.93,10.11,7.05,-5.8
0.0002599999999999997,0.14,-0.32,0.99,9.88,2.27,-1.79
0.00026333333333333303,0.13,-0.31,1.01,6.63,4.93,0.31
0.00026666666666666635,0.09,-0.32,0.96,4.4,8.81,-2.38
0.0002699999999999997,0.1,-0.33,1.01,2.66,7.33,-0.44
0.000273333333333333,0.08,-0.33,0.95,4.79,8.44,-1.51
0.0002766666666666663,0.09,-0.33,0.94,6.76,10.47,-1.33
0.00027999999999999965,0.07,-0.34,0.93,11.22,7.33,-2.98
0.000283333333333333,0.04,-0.33,0.96,10.61,2.26,-4.24
0.0002866666666666663,0.08,-0.3,1.04,4.09,0.03,-2.78
0.0002899999999999996,0.08,-0.3,0.97,3.53,4.12,-3.44
0.00029333333333333295,0.11,-0.32,0.9,8.12,8.92,-2.49
0.00029666666666666627,0.11,-0.32,0.95,9.83,8.0,0.0
0.0002999999999999996,0.1,-0.32,0.97,6.76,16.61,0.2
0.0003033333333333329,0.09,-0.3,0.99,1.1,23.73,-0.96
0.00030666666666666624,0.05,-0.31,1.01,-5.04,26.14,-2.75
0.00030999999999999957,0.02,-0.35,1.08,-13.54,30.2,-4.72
0.0003133333333333329,0.03,-0.31,0.94,-17.05,48.11,3.57
0.0003166666666666662,0.02,-0.32,0.86,0.05,33.8,5.47
0.00031999999999999954,-0.01,-0.31,0.91,14.72,13.76,-4.64
0.00032333333333333286,-0.01,-0.31,0.92,18.14,9.18,-6.02
0.0003266666666666662,0.01,-0.3,0.97,15.69,8.02,-7.13
0.0003299999999999995,0.02,-0.3,0.97,19.4,-0.56,-4.34
0.00033333333333333283,-0.02,-0.3,1.03,17.36,-3.57,-5.07
0.00033666666666666616,0.01,-0.29,1.03,12.92,-3.45,-6.31
0.0003399999999999995,0.01,-0.28,0.98,13.88,-2.67,-7.57
0.0003433333333333328,0.03,-0.28,1.02,14.98,-6.35,-5.66
0.00034666666666666613,0.05,-0.29,1.0,15.69,-4.05,-5.56
0.00034999999999999945,0.05,-0.28,1.0,16.43,-2.55,-5.36
0.0003533333333333328,0.05,-0.27,1.02,14.79,-4.47,-4.5
0.0003566666666666661,-0.01,-0.33,1.06,13.1,-9.74,-6.85
0.0003599999999999994,0.07,-0.25,1.02,9.62,-2.17,-7.83
0.00036333333333333275,0.06,-0.25,1.01,11.89,-5.34,-5.34
0.0003666666666666661,0.06,-0.25,1.09,5.94,-10.12,-3.82
0.0003699999999999994,0.06,-0.25,1.04,3.63,-10.17,-3.11
0.0003733333333333327,0.08,-0.27,0.98,4.87,-3.69,-3.34
0.00037666666666666605,0.09,-0.26,0.98,7.37,0.5,-2.18
0.00037999999999999937,0.06,-0.26,1.03,6.9,0.05,-2.52
0.0003833333333333327,0.03,-0.26,1.02,5.89,-2.66,-3.4
0.000386666666666666,0.02,-0.26,1.0,7.97,-8.73,-3.98
0.00038999999999999934,0.05,-0.25,0.98,7.82,-11.88,-3.89
0.00039333333333333267,0.08,-0.26,0.96,9.88,-7.6,-3.56
0.000396666666666666,0.07,-0.25,0.97,8.34,-4.31,-3.82
0.0003999999999999993,0.07,-0.25,0.95,9.44,-1.57,-4.29
0.00040333333333333264,0.06,-0.25,0.97,11.33,-4.56,-4.18
0.00040666666666666596,0.08,-0.24,0.99,11.27,-5.65,-3.04
0.0004099999999999993,0.09,-0.23,1.03,8.6,-5.89,-1.34
0.0004133333333333326,0.09,-0.24,0.98,9.33,-0.92,-1.42
0.00041666666666666593,0.05,-0.23,0.99,9.71,-1.15,-1.92
0.00041999999999999926,0.04,-0.26,1.0,7.85,-2.14,-3.6
0.0004233333333333326,0.03,-0.24,1.0,8.43,-9.25,-4.7
0.0004266666666666659,0.06,-0.24,1.01,8.37,-11.85,-4.55
0.00042999999999999923,0.12,-0.23,0.96,9.42,-3.73,-3.59
0.00043333333333333255,0.09,-0.24,0.96,11.07,-1.6,-2.5
0.0004366666666666659,0.09,-0.22,1.01,9.11,1.01,-1.56
0.0004399999999999992,0.11,-0.21,1.09,-0.93,3.86,0.2
0.0004433333333333325,0.09,-0.22,1.07,-10.06,25.95,-2.89
0.00044666666666666585,0.08,-0.21,1.11,-23.69,36.17,-5.44
0.0004499999999999992,0.05,-0.33,1.02,-23.66,40.93,-1.1
0.0004533333333333325,0.05,-0.24,0.9,-13.79,33.8,-5.91
0.0004566666666666658,0.09,-0.24,0.9,-3.11,23.3,-4.5
0.00045999999999999915,0.07,-0.24,0.95,4.15,13.92,1.3
0.00046333333333333247,-0.0,-0.23,0.95,8.21,5.82,-1.1
0.0004666666666666658,0.02,-0.23,1.0,10.06,0.5,-0.44
0.0004699999999999991,-0.01,-0.23,0.99,10.84,-4.43,-2.27
0.00047333333333333244,0.06,-0.24,0.95,11.94,2.79,-2.96
0.00047666666666666577,0.04,-0.23,0.94,13.66,2.53,-1.05
0.0004799999999999991,-0.03,-0.29,1.06,11.36,-7.28,-0.98
0.0004833333333333324,0.02,-0.2,1.05,7.89,-3.18,-2.89
0.00048666666666666574,0.03,-0.22,1.01,8.7,0.79,-3.82
0.0004899999999999991,0.06,-0.21,1.04,8.09,3.39,-1.76
0.0004933333333333325,0.02,-0.18,1.04,5.83,-1.22,-1.34
0.0004966666666666659,0.01,-0.22,1.03,5.1,-3.57,-2.09
0.0004999999999999993,0.05,-0.21,0.99,6.18,0.75,-3.07
0.0005033333333333326,0.07,-0.2,1.06,1.19,4.15,-2.18
0.000506666666666666,0.04,-0.19,1.02,-0.35,2.14,-1.68
0.0005099999999999994,0.03,-0.2,1.02,-1.42,-0.15,-1.21
0.0005133333333333328,0.04,-0.21,0.96,0.9,-0.53,-0.96
0.0005166666666666661,0.03,-0.23,0.93,6.81,0.95,-2.26
0.0005199999999999995,0.05,-0.2,0.96,9.79,-0.76,-1.34
0.0005233333333333329,0.07,-0.19,1.05,5.53,-3.76,1.11
0.0005266666666666663,0.1,-0.19,0.95,7.22,5.22,1.47
0.0005299999999999997,0.07,-0.21,0.96,9.65,5.66,3.13
0.000533333333333333,0.05,-0.19,0.98,9.01,3.94,3.69
0.0005366666666666664,0.07,-0.18,0.92,7.22,11.62,2.5
0.0005399999999999998,0.11,-0.17,0.9,6.76,19.04,4.53
0.0005433333333333332,0.12,-0.18,0.93,8.73,19.11,11.33
0.0005466666666666665,0.06,-0.2,0.96,11.24,15.5,13.02
0.0005499999999999999,0.03,-0.2,0.98,12.0,14.56,12.79
0.0005533333333333333,-0.01,-0.17,1.02,12.73,11.21,11.86
0.0005566666666666667,-0.02,-0.17,1.11,10.29,8.41,11.8
0.0005600000000000001,-0.03,-0.19,1.04,9.69,12.2,8.41
0.0005633333333333334,0.01,-0.19,1.05,7.37,16.7,8.46
0.0005666666666666668,-0.01,-0.2,1.05,10.23,12.0,10.34
0.0005700000000000002,-0.01,-0.18,1.05,9.4,10.15,10.96
0.0005733333333333336,-0.01,-0.18,1.05,9.47,16.67,8.41
0.000576666666666667,-0.03,-0.15,1.06,7.6,14.11,8.02
0.0005800000000000003,-0.07,-0.16,1.14,3.86,4.64,8.05
0.0005833333333333337,-0.06,-0.18,1.11,-0.18,6.93,6.34
0.0005866666666666671,-0.07,-0.19,1.05,-0.34,6.64,3.27
0.0005900000000000005,-0.09,-0.19,1.05,-0.63,6.75,-0.09
0.0005933333333333338,-0.07,-0.17,1.03,-1.04,1.36,-1.28
0.0005966666666666672,-0.09,-0.16,1.07,-2.72,-2.81,-3.08
0.0006000000000000006,-0.04,-0.16,1.02,-2.81,1.33,-3.88
0.000603333333333334,-0.04,-0.15,1.03,-3.69,1.11,-3.76
0.0006066666666666674,-0.06,-0.16,0.99,-0.64,0.29,-4.47
0.0006100000000000007,-0.09,-0.16,1.0,-0.92,-3.24,-6.55
0.0006133333333333341,-0.07,-0.16,1.02,2.02,-5.31,6.23
0.0006166666666666675,-0.05,-0.16,1.02,0.34,-5.42,-5.6
0.0006200000000000009,-0.0,-0.17,0.92,6.58,-0.06,-5.05
0.0006233333333333342,-0.02,-0.19,1.04,4.49,-2.56,-4.21
0.0006266666666666676,-0.07,-0.17,1.04,1.8,-7.33,-5.01
0.000630000000000001,-0.1,-0.18,0.99,3.57,-6.99,-10.44
0.0006333333333333344,-0.08,-0.17,1.04,3.86,-13.91,-13.27
0.0006366666666666678,-0.01,-0.17,1.02,5.54,-16.44,-10.6
0.0006400000000000011,0.02,-0.17,0.99,5.59,-12.66,-9.68
0.0006433333333333345,0.03,-0.16,0.98,4.99,-3.4,-9.69
0.0006466666666666679,-0.01,-0.18,0.99,6.06,-1.13,-11.44
0.0006500000000000013,0.01,-0.18,1.01,6.58,-5.88,-10.24
0.0006533333333333346,0.0,-0.16,1.08,4.41,-13.89,-7.65
0.000656666666666668,0.05,-0.16,1.04,2.49,-10.89,-7.04
0.0006600000000000014,0.05,-0.15,1.04,-2.79,-5.01,-7.56
0.0006633333333333348,0.04,-0.15,0.99,-2.69,4.17,-9.8
0.0006666666666666682,0.07,-0.15,0.98,-0.99,14.79,-9.21
0.0006700000000000015,0.04,-0.16,1.02,-2.92,20.35,-10.76
0.0006733333333333349,0.04,-0.16,1.0,-1.53,21.53,-9.1
0.0006766666666666683,-0.01,-0.16,1.08,-1.36,4.82,-4.7
0.0006800000000000017,-0.02,-0.16,1.01,1.94,-4.0,-2.26
0.000683333333333335,-0.04,-0.17,1.0,2.37,-5.68,-4.03
0.0006866666666666684,-0.01,-0.17,0.99,4.2,-4.32,-4.23
0.0006900000000000018,-0.02,-0.16,1.03,1.92,-4.15,-4.17
0.0006933333333333352,-0.0,-0.16,0.99,3.19,-1.91,-3.19
0.0006966666666666686,0.01,-0.15,1.0,6.17,-1.31,-0.99
0.0007000000000000019,-0.03,-0.17,1.05,5.65,-5.91,-0.6
0.0007033333333333353,-0.03,-0.17,1.04,4.67,-6.06,-1.66
0.0007066666666666687,-0.05,-0.16,1.03,4.0,-4.11,-4.09
0.0007100000000000021,-0.04,-0.16,1.0,6.84,-2.78,-5.59
0.0007133333333333355,-0.0,-0.16,1.02,7.48,-1.92,-4.93
0.0007166666666666688,-0.01,-0.15,1.04,6.73,-3.56,-3.59
0.0007200000000000022,-0.01,-0.15,0.99,7.45,-2.38,-4.4
0.0007233333333333356,-0.02,-0.15,1.0,8.14,-3.4,-5.44
0.000726666666666669,-0.05,-0.15,1.02,7.82,-7.97,-6.47
0.0007300000000000023,0.0,-0.16,0.97,6.79,-2.43,-8.08
0.0007333333333333357,0.03,-0.15,0.94,10.47,3.19,-7.28
0.0007366666666666691,0.01,-0.14,1.01,12.87,-0.26,-5.65
0.0007400000000000025,0.01,-0.14,1.03,11.66,-1.36,-5.82
0.0007433333333333359,0.01,-0.14,1.05,8.08,4.15,-7.83
0.0007466666666666692,0.04,-0.14,1.04,5.66,9.56,-8.12
0.0007500000000000026,0.03,-0.14,1.0,6.63,11.31,-6.69
0.000753333333333336,0.06,-0.1,1.07,4.11,13.44,-3.1
0.0007566666666666694,0.02,-0.11,1.08,0.67,17.59,-2.64
0.0007600000000000028,0.02,-0.12,1.05,-1.57,24.24,-2.63
0.0007633333333333361,-0.02,-0.13,1.04,-1.15,10.56,0.61
0.0007666666666666695,-0.09,-0.13,1.03,13.92,-19.28,7.4
0.0007700000000000029,0.05,-0.13,0.89,-4.9,62.34,-20.84
0.0007733333333333363,0.11,-0.12,1.03,7.53,-10.58,11.18
0.0007766666666666696,-0.01,-0.14,1.03,15.34,18.52,3.88
0.000780000000000003,-0.06,-0.12,1.06,0.84,16.56,-0.12
0.0007833333333333364,-0.03,-0.11,1.02,9.24,7.57,3.04
0.0007866666666666698,-0.07,-0.13,1.06,4.5,14.05,-3.04
0.0007900000000000032,-0.05,-0.13,1.03,7.27,2.05,0.63
0.0007933333333333365,-0.03,-0.12,0.98,9.13,10.53,-2.03
0.0007966666666666699,-0.03,-0.11,0.99,9.24,14.64,-2.06
0.0008000000000000033,-0.05,-0.09,1.01,9.89,7.28,1.3
0.0008033333333333367,-0.09,-0.1,1.02,9.89,4.38,-0.7
0.00080666666666667,-0.11,-0.11,1.02,9.56,-0.06,-3.83
0.0008100000000000034,-0.08,-0.12,1.01,9.21,-0.67,-5.94
0.0008133333333333368,-0.06,-0.1,0.99,10.49,-0.35,-6.75
0.0008166666666666702,-0.01,-0.08,0.99,9.94,4.72,-5.25
0.0008200000000000036,-0.02,-0.07,1.02,9.94,8.76,-3.63
0.0008233333333333369,-0.03,-0.07,1.03,8.87,11.88,-1.71
0.0008266666666666703,-0.08,-0.08,1.06,8.99,4.93,-1.6
0.0008300000000000037,-0.07,-0.08,1.07,8.72,2.72,-2.5
0.0008333333333333371,-0.06,-0.07,1.05,7.51,5.08,-4.63
0.0008366666666666705,-0.08,-0.07,1.08,5.25,2.2,-5.89
0.0008400000000000038,-0.07,-0.07,1.07,3.83,-0.67,-5.68
0.0008433333333333372,-0.07,-0.08,1.06,3.5,-5.44,-5.86
0.0008466666666666706,-0.04,-0.09,1.04,4.52,-5.65,-5.88
0.000850000000000004,-0.04,-0.09,1.04,4.5,-7.69,-4.64
0.0008533333333333373,-0.01,-0.08,0.99,7.01,-0.75,-3.79
0.0008566666666666707,0.0,-0.09,1.03,7.45,0.73,-0.95
0.0008600000000000041,-0.05,-0.09,1.09,1.77,-6.93,-0.29
0.0008633333333333375,-0.04,-0.09,1.08,-1.66,-6.87,-0.66
0.0008666666666666709,-0.03,-0.1,1.0,-0.18,-3.04,-3.63
0.0008700000000000042,-0.01,-0.1,0.98,2.64,8.09,-2.21
0.0008733333333333376,-0.02,-0.08,0.97,8.85,1.48,-0.05
0.000876666666666671,-0.03,-0.06,1.0,9.71,-1.33,2.21
0.0008800000000000044,-0.05,-0.07,0.99,9.83,-1.02,0.23
0.0008833333333333377,-0.05,-0.07,1.0,7.39,4.98,-2.41
0.0008866666666666711,-0.04,-0.06,0.99,7.57,4.09,-2.82
0.0008900000000000045,-0.06,-0.07,1.04,5.33,-3.37,-2.64
0.0008933333333333379,-0.06,-0.07,1.0,7.31,-3.73,-4.55
0.0008966666666666713,-0.01,-0.05,1.0,7.56,-1.33,-2.47
0.0009000000000000046,0.03,-0.04,1.03,6.26,4.4,1.54
0.000903333333333338,-0.04,-0.03,1.07,4.47,4.15,2.11
0.0009066666666666714,-0.05,-0.04,1.05,3.39,3.76,3.69
0.0009100000000000048,-0.06,-0.12,1.05,6.4,7.16,2.93
0.0009133333333333382,-0.0,-0.06,0.97,6.21,22.08,6.85
0.0009166666666666715,-0.03,-0.03,0.99,11.86,19.94,6.26
0.0009200000000000049,-0.05,-0.06,1.03,11.36,22.24,9.86
0.0009233333333333383,-0.08,-0.05,1.06,9.07,19.42,10.31
0.0009266666666666717,-0.1,-0.06,1.05,7.98,13.11,8.81
0.000930000000000005,-0.12,-0.06,1.01,5.22,12.73,4.92
0.0009333333333333384,-0.05,-0.04,0.93,7.05,25.94,4.18
0.0009366666666666718,-0.12,-0.06,1.0,8.92,21.08,1.73
0.0009400000000000052,-0.07,-0.04,1.03,9.66,14.05,4.75
0.0009433333333333386,-0.12,-0.04,1.04,10.49,8.98,1.73
0.0009466666666666719,-0.08,-0.03,0.98,12.02,10.03,0.41
0.0009500000000000053,-0.04,-0.02,0.99,11.51,11.31,3.08
0.0009533333333333387,-0.12,-0.05,1.03,12.7,4.05,0.43
0.0009566666666666721,-0.15,-0.04,1.1,7.51,-4.26,-1.33
0.0009600000000000054,-0.07,-0.02,0.99,11.47,-0.32,-1.19
0.0009633333333333388,-0.07,-0.01,1.0,10.75,-0.56,-0.2
0.0009666666666666722,-0.05,-0.01,1.03,10.35,5.36,0.89
0.0009700000000000056,-0.08,0.01,1.06,9.5,3.37,0.93
0.000973333333333339,-0.11,-0.01,1.05,7.54,4.87,0.95
0.0009766666666666723,-0.09,0.01,1.03,6.06,0.34,0.52
0.0009800000000000056,-0.11,0.0,1.06,5.57,-2.7,1.07
0.0009833333333333389,-0.07,0.01,0.98,8.69,5.1,1.44
0.0009866666666666721,-0.11,0.0,1.05,7.5,1.98,1.13
0.0009900000000000054,-0.11,0.01,1.03,7.95,1.76,0.79
