time,accl_x,accl_y,accl_z,gyro_x,gyro_y,gyro_z
0.0,0.11,-0.3,0.85,29.69,12.27,9.51
3.3333333333333333e-06,0.07,-0.27,0.95,27.63,9.02,8.23
6.666666666666667e-06,0.02,-0.28,1.04,24.43,0.18,10.38
9.999999999999999e-06,-0.02,-0.28,1.06,21.45,-5.5,6.66
1.3333333333333333e-05,-0.02,-0.27,1.02,19.11,-4.27,5.19
1.6666666666666667e-05,-0.02,-0.28,1.01,17.66,-0.69,2.5
2e-05,0.01,-0.27,1.01,17.82,4.76,2.08
2.3333333333333336e-05,0.02,-0.26,1.0,17.34,8.03,1.74
2.666666666666667e-05,0.02,-0.27,1.02,17.69,7.97,3.11
3.0000000000000004e-05,-0.0,-0.26,1.04,16.02,5.25,3.5
3.3333333333333335e-05,-0.02,-0.26,1.06,14.24,4.41,2.85
3.6666666666666666e-05,-0.03,-0.26,1.08,9.51,2.7,1.74
3.9999999999999996e-05,-0.03,-0.26,1.05,8.49,1.04,1.91
4.333333333333333e-05,-0.05,-0.27,1.01,9.25,-1.65,1.74
4.666666666666666e-05,-0.06,-0.28,1.0,10.64,-2.0,0.24
4.999999999999999e-05,-0.06,-0.28,0.96,11.68,-0.24,-2.32
5.333333333333332e-05,-0.07,-0.27,0.93,14.47,2.14,-6.03
5.666666666666665e-05,-0.05,-0.27,0.94,16.96,2.23,-8.06
5.999999999999998e-05,-0.06,-0.28,0.94,20.76,-2.38,-9.63
6.333333333333332e-05,-0.08,-0.28,0.96,22.32,-10.44,-15.15
6.666666666666666e-05,-0.03,-0.26,0.99,24.32,-10.93,-17.47
7e-05,0.01,-0.23,1.01,20.72,-9.21,-19.86
7.333333333333333e-05,0.01,-0.23,1.01,21.33,-7.45,-21.47
7.666666666666667e-05,0.04,-0.2,1.06,17.95,-7.31,-20.73
8e-05,0.11,-0.18,1.07,14.5,-2.96,-16.24
8.333333333333334e-05,0.14,-0.16,1.06,13.15,6.96,-11.97
8.666666666666668e-05,0.09,-0.16,1.1,12.14,1.92,-7.57
9.000000000000002e-05,0.05,-0.17,1.13,9.25,-8.0,-4.27
9.333333333333336e-05,0.05,-0.18,1.06,6.78,-7.92,-4.92
9.66666666666667e-05,0.07,-0.17,1.05,5.05,-8.84,-4.63
0.00010000000000000003,0.07,-0.17,1.06,2.24,-12.92,-2.41
0.00010333333333333337,0.1,-0.17,1.0,3.42,-6.93,-0.96
0.00010666666666666671,0.08,-0.18,1.0,2.99,-3.33,-0.38
0.00011000000000000004,0.06,-0.18,1.04,1.21,-5.79,0.03
0.00011333333333333338,0.08,-0.17,0.99,2.64,-6.5,1.36
0.00011666666666666672,0.11,-0.17,0.98,1.4,-4.09,5.36
0.00012000000000000006,0.11,-0.18,0.97,3.02,-6.34,7.69
0.0001233333333333334,0.1,-0.19,0.94,6.41,-5.85,7.98
0.00012666666666666672,0.11,-0.19,0.97,5.71,-4.58,9.71
0.00013000000000000004,0.11,-0.17,1.01,2.37,-8.58,12.93
0.00013333333333333337,0.08,-0.16,1.04,1.6,-11.24,14.11
0.0001366666666666667,0.06,-0.14,0.99,1.6,-12.89,12.98
0.00014000000000000001,0.02,-0.15,1.01,0.6,-17.71,11.4
0.00014333333333333334,0.02,-0.16,0.95,-1.16,-22.93,10.12
0.00014666666666666666,0.01,-0.19,0.91,1.71,-21.18,7.51
0.00015,0.09,-0.2,0.89,2.0,-7.54,4.5
0.0001533333333333333,0.07,-0.2,0.88,4.78,1.8,2.31
0.00015666666666666663,0.06,-0.21,0.92,8.98,3.79,1.42
0.00015999999999999996,0.05,-0.21,0.92,12.89,0.93,2.24
0.00016333333333333328,0.03,-0.21,0.96,16.02,-4.43,3.04
0.0001666666666666666,0.04,-0.2,1.0,15.21,-1.13,1.92
0.00016999999999999993,0.07,-0.18,1.0,14.14,7.73,-0.21
0.00017333333333333325,0.04,-0.18,1.06,10.93,11.21,-1.57
0.00017666666666666658,0.03,-0.18,1.08,10.56,5.62,-1.33
0.0001799999999999999,0.02,-0.18,1.07,10.26,0.05,-1.1
0.00018333333333333323,0.05,-0.19,1.07,11.15,-1.42,-1.02
0.00018666666666666655,0.06,-0.17,1.03,11.42,3.37,-2.52
0.00018999999999999987,0.08,-0.17,1.01,12.87,7.53,-1.51
0.0001933333333333332,0.06,-0.15,1.1,10.96,1.04,0.99
0.00019666666666666652,0.05,-0.15,1.1,6.82,-1.94,3.91
0.00019999999999999985,0.05,-0.15,1.02,6.66,4.5,5.92
0.00020333333333333317,0.04,-0.15,1.04,5.85,5.1,6.43
0.0002066666666666665,0.02,-0.15,1.02,7.13,-0.26,7.56
0.00020999999999999982,0.04,-0.16,0.97,6.0,-0.92,9.02
0.00021333333333333314,0.07,-0.16,1.02,7.11,5.89,1.28
0.00021666666666666647,0.09,-0.15,1.0,6.11,11.63,-1.24
0.0002199999999999998,0.05,-0.14,1.01,8.7,12.31,-0.06
0.00022333333333333311,0.03,-0.18,1.03,7.28,12.72,-0.17
0.00022666666666666644,0.06,-0.11,1.0,6.84,14.2,3.45
0.00022999999999999976,0.02,-0.14,1.01,7.82,12.93,4.34
0.0002333333333333331,0.02,-0.14,1.02,8.27,3.13,5.76
0.0002366666666666664,0.02,-0.16,1.02,9.3,0.02,2.2
0.00023999999999999974,0.04,-0.14,1.03,9.21,1.1,2.02
0.00024333333333333306,0.04,-0.13,1.02,8.56,4.89,2.02
0.0002466666666666664,0.05,-0.12,1.02,10.6,4.67,3.34
0.00024999999999999973,0.02,-0.12,1.07,10.4,-2.64,4.2
0.00025333333333333306,-0.01,-0.11,1.08,9.85,-17.11,5.1
0.0002566666666666664,0.0,-0.11,1.1,10.55,-30.0,6.23
0.0002599999999999997,0.04,-0.1,1.07,9.56,-36.49,7.63
0.00026333333333333303,0.06,-0.11,1.02,9.6,-31.24,7.88
0.00026666666666666635,0.09,-0.1,0.97,6.34,-20.58,6.0
0.0002699999999999997,0.07,-0.12,0.94,8.2,-15.24,5.4
0.000273333333333333,0.06,-0.12,0.94,7.66,-12.11,4.0
0.0002766666666666663,0.06,-0.12,0.91,9.39,-8.23,3.15
0.00027999999999999965,0.04,-0.12,0.93,10.92,-7.98,0.96
0.000283333333333333,0.05,-0.12,0.96,12.53,-8.14,0.18
0.0002866666666666663,0.05,-0.11,0.97,12.85,-6.66,-0.56
0.0002899999999999996,0.03,-0.09,1.0,11.5,-6.93,-2.15
0.00029333333333333295,0.05,-0.09,0.98,9.69,-0.32,-3.25
0.00029666666666666627,0.06,-0.08,1.0,8.14,1.91,-4.21
0.0002999999999999996,0.08,-0.08,0.99,9.74,3.18,-3.65
0.0003033333333333329,0.07,-0.09,0.98,11.8,2.98,-3.4
0.00030666666666666624,0.08,-0.09,1.0,12.15,0.55,-3.08
0.00030999999999999957,0.1,-0.08,1.03,11.85,0.47,-2.82
0.0003133333333333329,0.11,-0.06,1.03,11.83,0.34,-0.75
0.0003166666666666662,0.1,-0.05,1.06,9.04,-3.86,1.54
0.00031999999999999954,0.1,-0.05,1.06,7.59,-6.47,4.98
0.00032333333333333286,0.08,-0.05,1.06,6.37,-9.42,-3.33
0.0003266666666666662,-0.0,-0.08,0.98,7.82,-10.93,0.05
0.0003299999999999995,0.03,-0.08,0.94,9.21,-0.92,-0.31
0.00033333333333333283,0.05,-0.1,0.91,11.71,6.0,-1.79
0.00033666666666666616,0.01,-0.1,0.94,13.73,4.58,-3.79
0.0003399999999999995,0.01,-0.08,0.99,16.63,1.57,-8.23
0.0003433333333333328,0.06,-0.06,1.04,15.01,3.05,-6.29
0.00034666666666666613,0.07,-0.05,1.1,11.21,0.52,-5.86
0.00034999999999999945,0.03,-0.04,1.1,10.89,-8.58,-8.24
0.0003533333333333328,0.08,-0.01,1.07,8.53,-5.74,-4.52
0.0003566666666666661,0.1,-0.03,1.06,8.17,-0.31,-4.6
0.0003599999999999994,0.09,-0.04,1.05,7.24,2.92,-4.76
0.00036333333333333275,0.1,-0.04,1.02,9.4,4.67,-3.73
0.0003666666666666661,0.1,-0.05,1.03,9.63,4.21,-3.92
0.0003699999999999994,0.08,-0.05,1.02,13.04,5.48,-7.37
0.0003733333333333327,0.05,-0.03,1.04,11.76,3.69,-7.3
0.00037666666666666605,0.06,-0.02,1.05,11.15,-0.53,-5.95
0.00037999999999999937,0.06,-0.03,1.08,8.5,-3.31,-6.41
0.0003833333333333327,0.08,-0.02,1.07,7.22,-1.97,-5.79
0.000386666666666666,0.12,-0.01,1.08,4.89,2.37,-4.14
0.00038999999999999934,0.1,-0.0,1.05,5.85,3.33,-3.19
0.00039333333333333267,0.07,-0.01,1.07,5.4,1.4,-3.65
0.000396666666666666,0.09,-0.01,1.06,4.79,3.22,-3.77
0.0003999999999999993,0.08,-0.02,1.03,5.19,4.27,-4.63
0.00040333333333333264,0.07,-0.02,1.02,6.63,2.4,-4.67
0.00040666666666666596,0.11,-0.01,1.01,7.63,1.85,-2.84
0.0004099999999999993,0.05,-0.02,1.03,7.73,-5.24,-2.53
0.0004133333333333326,0.08,0.01,1.03,8.24,-6.43,-5.19
0.00041666666666666593,0.12,0.02,1.01,5.5,-0.41,-1.02
0.00041999999999999926,0.09,0.01,1.03,2.4,0.37,-0.6
0.0004233333333333326,0.06,0.0,1.02,2.55,-2.15,-0.08
0.0004266666666666659,0.04,0.0,0.99,3.44,-6.67,-0.05
0.00042999999999999923,0.04,-0.03,0.97,3.94,-11.01,-1.07
0.00043333333333333255,0.04,-0.03,0.95,4.87,-13.37,-4.73
0.0004366666666666659,0.06,-0.03,0.92,6.29,-6.7,-6.69
0.0004399999999999992,0.08,-0.01,0.92,7.25,-2.34,-7.42
0.0004433333333333325,0.09,-0.0,0.92,10.18,-1.74,-7.22
0.00044666666666666585,0.09,0.02,0.99,9.65,-1.18,-3.62
0.0004499999999999992,0.1,0.03,1.0,8.82,1.68,-1.92
0.0004533333333333325,0.14,0.07,1.07,5.5,9.76,-0.46
0.0004566666666666658,0.18,0.08,1.1,0.24,10.12,4.63
0.00045999999999999915,0.21,0.08,1.05,1.02,12.95,12.75
0.00046333333333333247,0.13,0.05,1.03,4.23,8.93,16.41
0.0004666666666666658,0.04,0.01,1.0,6.64,-3.11,13.71
0.0004699999999999991,0.07,-0.02,1.01,3.34,-4.6,13.51
0.00047333333333333244,0.05,-0.02,1.01,1.92,-5.73,9.74
0.00047666666666666577,0.05,-0.02,0.99,-0.2,-5.69,5.74
0.0004799999999999991,0.08,-0.0,0.94,2.76,-4.93,3.65
0.0004833333333333324,0.1,0.0,0.99,2.23,-1.79,2.66
0.00048666666666666574,0.1,-0.01,0.98,1.27,2.95,1.07
0.0004899999999999991,0.13,0.01,0.99,4.0,6.52,1.91
0.0004933333333333325,0.13,0.02,0.99,8.11,5.5,5.5
0.0004966666666666659,0.1,0.02,1.04,11.11,3.22,8.14
0.0004999999999999993,0.04,0.01,1.11,5.91,0.84,4.73
0.0005033333333333326,0.05,0.02,1.13,-1.37,2.12,0.12
0.000506666666666666,0.06,0.05,1.05,-4.2,10.34,0.31
0.0005099999999999994,0.05,0.02,1.03,-2.78,4.26,0.95
0.0005133333333333328,0.05,0.01,1.04,0.37,-10.08,2.7
0.0005166666666666661,0.05,0.0,1.06,-4.0,-17.82,5.25
0.0005199999999999995,0.09,0.02,1.06,-7.69,-21.13,10.11
0.0005233333333333329,0.09,0.04,1.04,-9.97,-19.05,10.72
0.0005266666666666663,0.05,0.01,1.03,-9.34,-23.4,6.08
0.0005299999999999997,0.07,0.03,1.0,-5.82,-23.68,2.76
0.000533333333333333,0.08,-0.01,0.96,-1.8,-18.29,0.0
0.0005366666666666664,0.11,-0.02,0.93,4.95,-7.1,-2.9
0.0005399999999999998,0.08,-0.02,0.96,11.28,-0.29,-4.84
0.0005433333333333332,0.07,-0.01,0.98,12.99,3.63,-8.03
0.0005466666666666665,0.09,-0.0,0.99,12.66,9.31,-9.79
0.0005499999999999999,0.14,0.02,1.04,11.37,14.56,-8.56
0.0005533333333333333,0.12,0.04,1.06,9.66,7.42,-4.63
0.0005566666666666667,0.1,0.04,1.08,9.08,-0.02,-1.98
0.0005600000000000001,0.08,0.03,1.07,10.09,-6.34,-2.24
0.0005633333333333334,0.05,0.03,1.06,9.37,-11.33,-3.92
0.0005666666666666668,0.05,0.02,1.04,10.4,-11.11,-6.55
0.0005700000000000002,0.05,0.01,1.05,6.75,-6.02,-12.38
0.0005733333333333336,0.09,0.02,0.99,2.85,6.24,-14.85
0.000576666666666667,0.15,0.04,0.97,2.6,20.47,-14.06
0.0005800000000000003,0.15,0.06,1.0,3.97,24.44,-11.27
0.0005833333333333337,0.12,0.06,1.06,6.78,13.91,-7.33
0.0005866666666666671,0.06,0.05,1.08,8.52,-0.93,-5.6
0.0005900000000000005,0.08,0.05,1.07,8.12,-7.69,-5.53
0.0005933333333333338,0.06,0.07,1.13,2.87,-11.51,-6.56
0.0005966666666666672,0.11,0.06,1.03,1.16,-6.66,-7.73
0.0006000000000000006,0.12,0.04,0.99,2.06,-1.19,-7.68
0.000603333333333334,0.12,0.06,1.05,1.01,-5.22,-4.92
0.0006066666666666674,0.11,0.05,1.03,-0.85,-5.28,-4.46
0.0006100000000000007,0.13,0.06,0.98,-0.18,0.09,-4.82
0.0006133333333333341,0.13,0.05,0.97,1.16,1.24,-2.87
0.0006166666666666675,0.12,0.05,1.0,1.71,3.48,-0.29
0.0006200000000000009,0.11,0.06,1.02,1.16,0.27,0.32
0.0006233333333333342,0.07,0.05,0.98,2.82,-0.18,-0.85
0.0006266666666666676,0.1,0.05,0.99,4.0,-0.26,-1.25
0.000630000000000001,0.07,0.06,1.0,4.47,-7.18,0.23
0.0006333333333333344,0.07,0.06,0.99,6.46,-15.1,1.13
0.0006366666666666678,0.07,0.06,1.0,7.45,-17.98,1.24
0.0006400000000000011,0.08,0.05,0.99,6.64,-16.82,0.14
0.0006433333333333345,0.06,0.05,1.0,5.37,-13.45,-2.67
0.0006466666666666679,0.09,0.05,0.97,8.43,-6.99,-3.18
0.0006500000000000013,0.09,0.06,0.96,11.8,-2.11,-4.11
0.0006533333333333346,0.11,0.06,0.98,12.11,3.05,-5.25
0.000656666666666668,0.09,0.07,1.0,13.8,2.4,-5.95
0.0006600000000000014,0.12,0.08,0.98,13.95,6.81,-6.92
0.0006633333333333348,0.13,0.08,1.01,13.07,9.56,-5.73
0.0006666666666666682,0.13,0.11,1.11,6.6,9.02,-4.63
0.0006700000000000015,0.12,0.09,1.09,3.69,6.56,-2.76
0.0006733333333333349,0.13,0.09,1.03,3.28,8.49,-3.6
0.0006766666666666683,0.1,0.08,1.06,3.47,2.21,-3.05
0.0006800000000000017,0.12,0.06,0.98,6.32,4.21,-3.31
0.000683333333333335,0.13,0.06,0.95,11.27,7.98,-3.48
0.0006866666666666684,0.12,0.06,0.96,15.13,7.36,-2.53
0.0006900000000000018,0.13,0.09,1.04,12.9,4.7,-1.47
0.0006933333333333352,0.14,0.13,1.1,9.13,4.96,-0.31
0.0006966666666666686,0.12,0.12,1.08,5.88,8.17,0.87
0.0007000000000000019,0.07,0.1,1.06,4.47,6.26,-0.61
0.0007033333333333353,0.09,0.09,1.03,6.17,3.8,0.47
0.0007066666666666687,0.1,0.09,0.99,8.46,1.83,0.15
0.0007100000000000021,0.1,0.08,0.99,9.36,2.7,-0.47
0.0007133333333333355,0.09,0.1,1.02,10.26,0.09,-0.05
0.0007166666666666688,0.09,0.11,1.07,8.87,-0.9,-0.02
0.0007200000000000022,0.11,0.11,1.07,6.79,-1.63,0.78
0.0007233333333333356,0.1,0.1,1.05,5.5,-0.63,0.05
0.000726666666666669,0.12,0.11,1.03,5.24,3.33,0.32
0.0007300000000000023,0.1,0.1,1.0,7.02,7.63,0.64
0.0007333333333333357,0.08,0.11,1.01,7.98,6.0,1.04
0.0007366666666666691,0.07,0.12,1.03,7.36,3.13,1.02
0.0007400000000000025,0.06,0.1,1.0,7.76,3.73,-0.64
0.0007433333333333359,0.08,0.1,1.0,8.64,6.96,-2.15
0.0007466666666666692,0.12,0.11,1.01,8.99,8.81,-0.95
0.0007500000000000026,0.09,0.11,1.01,10.15,6.29,-0.4
0.000753333333333336,0.07,0.13,1.09,7.71,0.27,1.07
0.0007566666666666694,0.11,0.15,1.07,7.07,-0.05,-7.94
0.0007600000000000028,0.08,0.14,1.05,3.8,2.4,1.73
0.0007633333333333361,0.06,0.14,1.06,1.76,-1.21,0.93
0.0007666666666666695,0.06,0.15,1.01,1.57,-3.59,-0.12
0.0007700000000000029,0.06,0.14,0.98,2.75,-5.39,-0.84
0.0007733333333333363,0.06,0.15,0.99,3.8,-11.82,-0.76
0.0007766666666666696,0.01,0.16,1.02,4.27,-20.56,-1.68
0.000780000000000003,0.01,0.16,1.01,1.82,-20.05,-5.37
0.0007833333333333364,0.05,0.14,0.97,0.38,-18.05,-9.01
0.0007866666666666698,0.07,0.13,0.95,-0.12,-16.26,-11.16
0.0007900000000000032,0.1,0.13,0.9,3.05,-14.72,-11.8
0.0007933333333333365,0.14,0.12,0.92,3.92,-10.14,-11.1
0.0007966666666666699,0.14,0.13,0.94,5.25,-8.96,-10.02
0.0008000000000000033,0.15,0.13,0.97,6.52,-8.55,-8.31
0.0008033333333333367,0.14,0.13,0.98,7.73,-7.48,-7.88
0.00080666666666667,0.13,0.13,0.99,8.75,-5.76,-7.05
0.0008100000000000034,0.13,0.14,1.03,6.09,-7.16,-6.35
0.0008133333333333368,0.13,0.14,1.06,6.2,-10.53,-5.73
0.0008166666666666702,0.11,0.12,1.04,7.19,-13.24,-6.06
0.0008200000000000036,0.13,0.12,1.02,9.15,-12.99,-6.58
0.0008233333333333369,0.14,0.1,1.01,12.69,-10.09,-5.79
0.0008266666666666703,0.18,0.11,1.02,14.21,-3.85,-2.73
0.0008300000000000037,0.21,0.13,0.99,15.37,13.48,-0.23
0.0008333333333333371,0.21,0.14,1.04,12.69,33.18,1.47
0.0008366666666666705,0.14,0.15,1.05,12.18,41.02,2.84
0.0008400000000000038,0.1,0.16,1.07,7.79,46.87,1.74
0.0008433333333333372,0.04,0.17,1.12,8.37,39.69,2.17
0.0008466666666666706,0.04,0.15,1.09,6.78,33.69,1.36
0.000850000000000004,-0.01,0.16,1.06,9.05,23.48,0.44
0.0008533333333333373,-0.01,0.16,1.11,7.95,17.47,-1.8
0.0008566666666666707,0.01,0.19,1.1,5.31,14.75,-3.02
0.0008600000000000041,0.02,0.19,1.08,2.89,16.35,-4.24
0.0008633333333333375,0.02,0.19,1.06,1.86,12.12,-3.04
0.0008666666666666709,0.01,0.19,1.05,1.65,5.25,-4.26
0.0008700000000000042,0.05,0.19,1.04,1.31,3.22,-3.27
0.0008733333333333376,0.03,0.19,1.03,0.12,-0.76,-2.99
0.000876666666666671,0.04,0.19,1.0,-0.85,0.95,-5.02
0.0008800000000000044,0.06,0.18,0.96,0.73,4.32,-5.89
0.0008833333333333377,0.09,0.18,0.96,2.24,4.4,-4.31
0.0008866666666666711,0.07,0.19,0.97,0.89,4.2,-5.65
0.0008900000000000045,0.07,0.21,1.01,-0.66,3.21,-3.21
0.0008933333333333379,0.08,0.22,1.01,-5.34,1.04,-0.99
0.0008966666666666713,0.07,0.22,1.05,-10.46,-2.29,0.14
0.0009000000000000046,0.04,0.19,1.03,-10.92,-6.73,0.11
0.000903333333333338,0.07,0.19,1.0,-12.7,-6.87,-0.23
0.0009066666666666714,0.07,0.17,0.93,-11.36,-4.78,-2.46
0.0009100000000000048,0.07,0.18,0.9,-9.04,-0.55,-3.37
0.0009133333333333382,0.09,0.18,0.94,-7.98,-0.98,-1.11
0.0009166666666666715,0.08,0.18,0.95,-7.92,1.27,-0.87
0.0009200000000000049,0.11,0.18,0.96,-9.22,11.48,1.31
0.0009233333333333383,0.13,0.18,0.95,-9.65,21.8,3.19
0.0009266666666666717,0.09,0.19,0.96,-7.82,25.57,3.66
0.000930000000000005,0.11,0.19,1.01,-10.08,25.69,7.71
0.0009333333333333384,0.08,0.16,1.04,-12.73,24.12,10.52
0.0009366666666666718,0.04,0.16,1.0,-8.34,16.92,11.63
0.0009400000000000052,0.0,0.14,0.96,-3.07,12.34,11.19
0.0009433333333333386,-0.04,0.12,0.97,3.85,4.6,9.01
0.0009466666666666719,-0.03,0.13,1.0,3.94,1.5,6.55
0.0009500000000000053,0.03,0.15,1.01,2.4,8.43,5.68
0.0009533333333333387,0.05,0.16,1.0,3.74,12.11,6.69
0.0009566666666666721,0.05,0.15,0.97,7.48,16.69,7.85
0.0009600000000000054,0.04,0.15,0.96,13.18,16.7,10.12
0.0009633333333333388,-0.0,0.16,1.03,12.11,15.1,9.76
0.0009666666666666722,0.01,0.18,1.02,14.08,12.61,10.11
0.0009700000000000056,0.01,0.18,1.02,13.82,7.82,10.46
0.000973333333333339,-0.02,0.18,1.07,14.09,-6.0,12.95
0.0009766666666666723,-0.01,0.19,1.04,16.12,-13.51,14.2
0.0009800000000000056,0.01,0.19,1.0,15.25,-6.79,12.32
0.0009833333333333389,-0.05,0.18,1.04,15.36,-12.93,10.11
