time,acce_x,acce_y,acce_z,gyro_x,gyro_y,gyro_z
0.0,0.27,-0.22,0.96,-28.64,4.61,1.25
3.3333333333333333e-06,0.25,-0.23,0.96,-27.42,2.23,1.1
6.666666666666667e-06,0.25,-0.25,0.96,-24.47,-1.65,1.44
9.999999999999999e-06,0.28,-0.24,0.96,-22.53,-3.15,3.13
1.3333333333333333e-05,0.25,-0.25,0.96,-21.37,-8.78,5.79
1.6666666666666667e-05,0.28,-0.26,0.97,-19.91,-11.04,8.05
2e-05,0.32,-0.26,0.9,-16.7,-6.85,12.61
2.3333333333333336e-05,0.25,-0.26,0.92,-15.76,-10.23,12.82
2.666666666666667e-05,0.24,-0.29,0.94,-15.6,-8.35,11.48
3.0000000000000004e-05,0.25,-0.3,0.96,-21.42,-3.24,8.96
3.3333333333333335e-05,0.25,-0.3,0.87,-17.5,1.15,8.18
3.6666666666666666e-05,0.3,-0.3,0.86,-14.24,6.41,10.24
3.9999999999999996e-05,0.26,-0.32,0.88,-13.33,-3.54,13.02
4.333333333333333e-05,0.27,-0.33,0.92,-16.15,-4.53,15.15
4.666666666666666e-05,0.2,-0.32,0.94,-20.75,-9.69,12.93
4.999999999999999e-05,0.23,-0.34,0.88,-17.33,-6.0,11.82
5.333333333333332e-05,0.25,-0.34,0.87,-17.8,-2.73,11.01
5.666666666666665e-05,0.22,-0.37,0.89,-18.6,-2.67,9.57
5.999999999999998e-05,0.21,-0.37,0.87,-19.79,0.98,7.65
6.333333333333332e-05,0.24,-0.39,0.83,-16.46,3.08,7.57
6.666666666666666e-05,0.21,-0.41,0.85,-15.76,-1.4,7.48
7e-05,0.23,-0.4,0.84,-14.4,-1.45,8.26
7.333333333333333e-05,0.23,-0.41,0.81,-8.37,0.35,8.84
7.666666666666667e-05,0.19,-0.41,0.82,-5.48,-2.31,7.22
8e-05,0.19,-0.43,0.87,-6.52,-5.59,5.65
8.333333333333334e-05,0.21,-0.42,0.87,-9.89,-2.02,4.05
8.666666666666668e-05,0.22,-0.43,0.83,-10.73,1.39,3.21
9.000000000000002e-05,0.19,-0.43,0.79,-8.6,0.4,1.88
9.333333333333336e-05,0.18,-0.48,0.77,-6.56,0.53,0.31
9.66666666666667e-05,0.18,-0.49,0.73,-4.47,7.34,-1.97
0.00010000000000000003,0.17,-0.49,0.68,6.03,4.27,-1.63
0.00010333333333333337,0.13,-0.51,0.71,6.96,5.27,-6.23
0.00010666666666666671,0.14,-0.51,0.69,11.11,3.51,-9.39
0.00011000000000000004,0.14,-0.49,0.75,12.87,-1.21,-13.02
0.00011333333333333338,0.16,-0.47,0.7,17.5,0.6,-16.2
0.00011666666666666672,0.21,-0.43,0.73,23.08,6.15,-18.46
0.00012000000000000006,0.2,-0.4,0.81,24.32,5.85,-19.53
0.0001233333333333334,0.21,-0.39,0.92,19.4,1.33,-20.41
0.00012666666666666672,0.23,-0.36,0.93,15.42,-1.56,-18.6
0.00013000000000000004,0.26,-0.35,0.85,19.48,1.44,-14.85
0.00013333333333333337,0.3,-0.36,0.83,20.14,7.88,-13.86
0.0001366666666666667,0.22,-0.35,0.81,25.04,3.36,-14.37
0.00014000000000000001,0.24,-0.34,0.85,27.04,7.37,-14.82
0.00014333333333333334,0.26,-0.33,0.89,27.76,8.79,-13.11
0.00014666666666666666,0.23,-0.33,0.89,26.24,7.95,-12.85
0.00015,0.2,-0.31,0.9,25.98,3.15,-12.98
0.0001533333333333333,0.21,-0.3,0.89,27.08,0.03,-14.53
0.00015666666666666663,0.26,-0.23,0.9,26.17,-2.82,-16.96
0.00015999999999999996,0.26,-0.28,0.88,27.47,2.17,-17.59
0.00016333333333333328,0.27,-0.26,0.91,26.46,5.36,-15.6
0.0001666666666666666,0.26,-0.24,0.97,23.82,5.71,-14.87
0.00016999999999999993,0.26,-0.21,0.92,25.83,4.24,-13.95
0.00017333333333333325,0.28,-0.22,0.95,26.03,1.47,-11.19
0.00017666666666666658,0.26,-0.21,0.96,25.89,-1.6,-9.62
0.0001799999999999999,0.25,-0.21,0.93,27.85,0.34,-14.98
0.00018333333333333323,0.25,-0.2,0.95,26.31,1.02,-14.5
0.00018666666666666655,0.26,-0.21,1.05,18.7,-1.15,-15.97
0.00018999999999999987,0.26,-0.17,1.02,17.24,-3.76,-16.02
0.0001933333333333332,0.32,-0.16,0.96,20.05,-2.15,-12.47
0.00019666666666666652,0.32,-0.15,0.95,26.56,-6.05,-7.82
0.00019999999999999985,0.31,-0.15,0.99,27.62,-7.33,-6.4
0.00020333333333333317,0.25,-0.16,1.04,24.29,-9.91,-8.2
0.0002066666666666665,0.28,-0.14,1.03,20.87,-8.14,-10.27
0.00020999999999999982,0.3,-0.13,0.97,22.24,-4.35,-11.42
0.00021333333333333314,0.36,-0.11,0.96,22.78,0.44,-8.82
0.00021666666666666647,0.37,-0.14,0.97,22.84,9.5,-6.12
0.0002199999999999998,0.3,-0.14,1.01,18.55,5.11,-6.23
0.00022333333333333311,0.32,-0.14,0.98,17.34,4.03,-3.02
0.00022666666666666644,0.3,-0.15,0.97,17.53,-1.98,0.23
0.00022999999999999976,0.28,-0.16,0.93,18.92,-4.05,1.76
0.0002333333333333331,0.25,-0.16,0.88,21.33,-1.05,-1.63
0.0002366666666666664,0.28,-0.15,0.87,23.16,8.18,-4.81
0.00023999999999999974,0.3,-0.12,0.92,22.0,18.63,-6.41
0.00024333333333333306,0.27,-0.1,1.01,17.85,22.56,-7.39
0.0002466666666666664,0.27,-0.08,1.07,6.76,28.21,-7.88
0.00024999999999999973,0.26,-0.08,1.07,-3.16,30.69,-5.94
0.00025333333333333306,0.28,-0.09,1.05,-7.97,30.29,-2.35
0.0002566666666666664,0.26,-0.12,0.97,-4.89,24.08,1.62
0.0002599999999999997,0.2,-0.16,0.89,6.12,17.45,2.66
0.00026333333333333303,0.16,-0.16,0.9,16.02,9.39,2.5
0.00026666666666666635,0.16,-0.15,0.95,20.99,-1.18,0.5
0.0002699999999999997,0.18,-0.14,0.96,27.62,-7.92,-0.24
0.000273333333333333,0.15,-0.12,1.01,28.58,-11.16,-4.84
0.0002766666666666663,0.17,-0.08,1.08,25.54,-7.13,-9.31
0.00027999999999999965,0.25,-0.03,1.11,20.02,0.72,-9.94
0.000283333333333333,0.25,-0.03,1.18,12.7,-1.65,-8.98
0.0002866666666666663,0.28,-0.02,1.12,10.78,1.08,-5.11
0.0002899999999999996,0.28,-0.04,1.08,10.73,3.18,-2.82
0.00029333333333333295,0.23,-0.07,1.07,9.5,1.51,-3.54
0.00029666666666666627,0.26,-0.07,1.0,11.54,2.43,-2.44
0.0002999999999999996,0.24,-0.09,0.95,14.76,0.67,-2.43
0.0003033333333333329,0.21,-0.08,0.96,17.59,-2.4,-3.76
0.00030666666666666624,0.23,-0.07,0.99,17.34,-3.1,-4.9
0.00030999999999999957,0.23,-0.06,1.0,17.59,-4.87,-5.71
0.0003133333333333329,0.23,-0.04,1.03,16.02,-8.31,-6.64
0.0003166666666666662,0.23,-0.04,1.02,15.25,-9.5,-7.54
0.00031999999999999954,0.27,-0.03,1.01,12.53,-2.05,-5.68
0.00032333333333333286,0.3,-0.02,1.01,11.91,3.24,-0.81
0.0003266666666666662,0.27,-0.03,1.0,10.46,2.69,1.24
0.0003299999999999995,0.26,-0.02,1.02,10.21,0.64,5.08
0.00033333333333333283,0.29,-0.0,1.08,6.99,1.51,9.11
0.00033666666666666616,0.24,-0.01,1.06,4.82,-0.53,8.93
0.0003399999999999995,0.18,-0.02,1.02,6.44,-4.61,6.76
0.0003433333333333328,0.24,-0.05,0.97,8.4,-2.09,5.69
0.00034666666666666613,0.23,-0.06,0.98,9.63,-4.81,5.98
0.00034999999999999945,0.23,-0.06,0.99,11.68,-4.32,5.25
0.0003533333333333328,0.21,-0.05,1.01,10.75,-11.33,3.79
0.0003566666666666661,0.23,-0.05,1.01,11.53,-14.14,2.31
0.0003599999999999994,0.3,-0.0,0.95,13.53,-4.89,4.78
0.00036333333333333275,0.23,-0.02,1.02,11.01,-0.99,1.77
0.0003666666666666661,0.2,-0.04,1.02,7.6,2.93,-0.93
0.0003699999999999994,0.21,-0.03,1.05,3.48,0.82,-2.79
0.0003733333333333327,0.19,-0.03,1.02,4.23,-1.86,-5.24
0.00037666666666666605,0.21,-0.03,0.96,7.48,-0.76,-7.28
0.00037999999999999937,0.23,-0.02,0.96,9.16,2.34,-8.96
0.0003833333333333327,0.24,-0.01,1.0,9.1,2.9,-8.96
0.000386666666666666,0.23,-0.01,1.02,8.52,-0.87,-8.23
0.00038999999999999934,0.27,0.0,1.01,7.42,1.8,-6.72
0.00039333333333333267,0.27,-0.0,0.98,8.38,2.24,-4.84
0.000396666666666666,0.23,-0.02,1.0,8.12,0.78,-6.18
0.0003999999999999993,0.2,-0.01,1.02,5.88,-0.55,-9.05
0.00040333333333333264,0.22,-0.01,1.0,7.27,2.76,-12.41
0.00040666666666666596,0.25,0.0,0.98,8.89,5.21,-12.99
0.0004099999999999993,0.25,0.0,0.98,10.14,0.21,-11.01
0.0004133333333333326,0.24,0.0,0.99,13.02,-4.58,-9.05
0.00041666666666666593,0.25,0.01,1.01,11.28,-3.47,-8.76
0.00041999999999999926,0.25,0.01,0.98,12.02,-2.17,-9.31
0.0004233333333333326,0.2,-0.02,1.0,12.15,-4.2,-10.5
0.0004266666666666659,0.24,0.02,1.0,11.22,-5.56,-11.33
0.00042999999999999923,0.28,0.03,0.96,11.27,1.82,-11.44
0.00043333333333333255,0.28,0.03,0.98,10.12,4.47,-10.78
0.0004366666666666659,0.28,0.03,0.96,11.36,2.58,-8.53
0.0004399999999999992,0.27,0.02,0.94,14.14,-3.25,-5.19
0.0004433333333333325,0.26,0.02,0.93,16.81,-7.04,-1.79
0.00044666666666666585,0.25,0.01,0.94,16.92,-6.53,-0.89
0.0004499999999999992,0.23,0.03,0.95,14.32,2.41,-3.4
0.0004533333333333325,0.23,0.04,0.94,13.79,5.48,-8.67
0.0004566666666666658,0.31,0.09,0.97,17.42,9.51,-1.79
0.00045999999999999915,0.31,0.11,1.01,17.95,2.14,4.27
0.00046333333333333247,0.2,0.08,1.01,20.92,-14.05,5.92
0.0004666666666666658,0.3,0.08,1.01,17.8,-6.27,6.99
0.0004699999999999991,0.31,0.07,1.05,11.76,1.5,8.09
0.00047333333333333244,0.26,0.07,1.04,8.53,5.95,5.73
0.00047666666666666577,0.2,0.06,1.05,5.27,3.62,0.58
0.0004799999999999991,0.23,0.08,1.05,5.53,4.7,-2.76
0.0004833333333333324,0.25,0.1,1.1,2.46,3.01,-4.29
0.00048666666666666574,0.28,0.11,1.09,0.67,0.61,-3.44
0.0004899999999999991,0.28,0.11,1.08,-2.17,1.47,-3.27
0.0004933333333333325,0.26,0.11,1.07,0.12,-2.08,-3.01
0.0004966666666666659,0.25,0.09,1.06,-0.56,-0.09,-4.32
0.0004999999999999993,0.23,0.1,1.1,-6.79,-0.6,-7.48
0.0005033333333333326,0.27,0.09,1.04,-9.4,1.11,-8.27
0.000506666666666666,0.3,0.1,0.97,-7.44,9.01,-6.63
0.0005099999999999994,0.28,0.08,0.96,-5.6,7.77,-4.73
0.0005133333333333328,0.24,0.08,0.98,-7.6,2.31,-4.34
0.0005166666666666661,0.23,0.07,0.96,-5.76,-3.13,-3.05
0.0005199999999999995,0.23,0.07,0.93,-5.62,-7.22,-3.24
0.0005233333333333329,0.25,0.06,0.93,-7.24,-5.36,-3.62
0.0005266666666666663,0.25,0.05,0.88,-6.75,-1.33,-5.33
0.0005299999999999997,0.26,0.06,0.85,-2.99,1.47,-5.95
0.000533333333333333,0.28,0.07,0.9,-3.18,1.79,-4.95
0.0005366666666666664,0.33,0.11,0.92,-0.66,5.83,-0.21
0.0005399999999999998,0.31,0.1,0.95,-1.71,10.44,0.03
0.0005433333333333332,0.33,0.08,0.93,-0.24,13.01,1.63
0.0005466666666666665,0.28,0.08,0.95,3.82,5.44,4.76
0.0005499999999999999,0.26,0.09,1.04,0.9,-5.44,5.59
0.0005533333333333333,0.26,0.09,1.11,-10.11,-6.99,1.73
0.0005566666666666667,0.22,0.05,1.12,-17.34,-10.82,-2.05
0.0005600000000000001,0.3,0.09,1.02,-20.69,8.93,-2.55
0.0005633333333333334,0.24,0.07,1.07,-22.46,4.89,-3.69
0.0005666666666666668,0.22,0.03,1.06,-23.11,-7.6,-2.63
0.0005700000000000002,0.24,0.02,0.98,-21.18,-9.01,-2.31
0.0005733333333333336,0.24,0.01,0.9,-15.33,-8.44,-2.76
0.000576666666666667,0.21,-0.01,0.87,-11.11,0.05,-6.66
0.0005800000000000003,0.2,-0.01,0.84,-6.18,9.74,-12.26
0.0005833333333333337,0.04,-0.03,0.86,2.09,4.26,-24.9
0.0005866666666666671,-0.03,-0.01,0.95,2.63,-10.92,-38.4
0.0005900000000000005,0.06,0.01,1.1,-6.72,-27.21,-45.08
0.0005933333333333338,0.2,0.03,1.11,-16.31,-34.6,-41.69
0.0005966666666666672,0.36,0.08,1.0,-27.8,-10.78,-36.15
0.0006000000000000006,0.42,0.08,0.92,-28.7,17.83,-27.19
0.000603333333333334,0.2,0.18,1.17,-35.76,27.16,-23.5
0.0006066666666666674,0.25,0.02,0.99,-27.47,29.47,6.29
0.0006100000000000007,0.19,0.0,0.99,-16.72,21.19,-15.31
0.0006133333333333341,0.16,-0.02,0.99,-13.42,11.37,-17.02
0.0006166666666666675,0.17,0.06,1.03,-7.25,4.66,-16.21
0.0006200000000000009,0.22,-0.03,0.96,6.93,-1.79,-12.75
0.0006233333333333342,0.22,-0.02,1.0,15.04,-10.37,-9.68
0.0006266666666666676,0.27,0.01,1.08,13.97,-9.08,-6.67
0.000630000000000001,0.25,0.02,1.11,8.38,-6.11,-5.95
0.0006333333333333344,0.26,0.03,1.12,3.94,1.89,-5.92
0.0006366666666666678,0.21,0.04,1.13,3.01,-2.56,-5.68
0.0006400000000000011,0.26,0.03,1.1,1.45,2.55,-3.89
0.0006433333333333345,0.24,0.03,1.05,1.34,6.02,-3.15
0.0006466666666666679,0.22,0.01,1.07,0.17,2.76,-2.89
0.0006500000000000013,0.23,0.02,1.01,2.79,-0.75,-2.84
0.0006533333333333346,0.25,0.02,0.98,6.0,-4.37,-1.66
0.000656666666666668,0.24,0.02,0.98,6.72,-3.51,-1.15
0.0006600000000000014,0.27,0.03,0.95,6.63,2.6,0.14
0.0006633333333333348,0.22,0.03,0.96,7.3,4.58,-1.15
0.0006666666666666682,0.21,0.03,1.01,5.3,1.71,-1.77
0.0006700000000000015,0.24,0.03,0.97,5.89,2.61,-2.09
0.0006733333333333349,0.24,0.03,0.93,9.85,2.35,-1.05
0.0006766666666666683,0.25,0.03,0.94,12.63,1.69,-0.06
0.0006800000000000017,0.28,0.04,0.97,13.34,4.31,1.45
0.000683333333333335,0.29,0.03,0.95,14.84,10.38,4.02
0.0006866666666666684,0.29,0.0,1.02,9.92,18.32,3.69
0.0006900000000000018,0.22,0.03,1.03,7.39,14.11,2.63
0.0006933333333333352,0.2,0.03,0.95,8.98,17.28,0.79
0.0006966666666666686,0.15,0.04,1.01,7.45,10.41,-0.81
0.0007000000000000019,0.17,0.03,1.08,2.21,5.5,-1.95
0.0007033333333333353,0.21,0.04,1.01,0.79,3.48,-1.11
0.0007066666666666687,0.21,0.04,0.99,4.96,0.31,0.29
0.0007100000000000021,0.18,0.04,1.01,5.86,-2.9,-0.11
0.0007133333333333355,0.19,0.04,1.05,2.75,-1.18,-1.71
0.0007166666666666688,0.21,0.05,1.04,0.47,0.89,-2.6
0.0007200000000000022,0.2,0.06,1.04,0.58,-4.92,-1.69
0.0007233333333333356,0.19,0.06,1.03,2.09,-8.56,-1.3
0.000726666666666669,0.22,0.06,1.01,1.76,-6.84,-1.91
0.0007300000000000023,0.24,0.06,0.99,1.13,-1.89,-1.53
0.0007333333333333357,0.22,0.06,0.99,2.06,-1.95,-1.6
0.0007366666666666691,0.2,0.07,1.04,0.63,-4.15,-2.92
0.0007400000000000025,0.22,0.06,1.02,-0.78,-4.9,-4.06
0.0007433333333333359,0.22,0.06,0.99,0.11,-7.88,-3.48
0.0007466666666666692,0.23,0.06,0.98,0.95,-8.55,-2.81
0.0007500000000000026,0.25,0.06,0.97,2.43,-8.05,-1.91
0.000753333333333336,0.3,0.07,0.96,2.9,-0.63,0.49
0.0007566666666666694,0.23,0.05,0.97,3.82,-0.99,0.58
0.0007600000000000028,0.23,0.06,0.97,3.6,0.17,-0.55
0.0007633333333333361,0.25,0.08,0.98,1.86,0.69,-0.03
0.0007666666666666695,0.26,0.08,0.95,3.6,3.42,1.53
0.0007700000000000029,0.28,0.09,0.91,7.69,7.91,2.93
0.0007733333333333363,0.26,0.06,0.96,6.93,11.88,3.01
0.0007766666666666696,0.22,0.07,0.98,6.14,7.73,2.99
0.000780000000000003,0.25,0.09,0.94,6.89,8.7,2.79
0.0007833333333333364,0.21,0.08,0.99,5.65,3.95,1.97
0.0007866666666666698,0.19,0.07,1.01,4.64,-1.16,0.55
0.0007900000000000032,0.25,0.09,1.0,3.94,0.47,1.69
0.0007933333333333365,0.25,0.09,1.0,3.88,2.18,2.29
0.0007966666666666699,0.25,0.08,0.99,5.22,4.61,3.13
0.0008000000000000033,0.24,0.07,1.01,3.77,5.71,3.13
0.0008033333333333367,0.22,0.07,1.04,3.68,4.24,3.02
0.00080666666666667,0.2,0.06,1.03,2.32,2.41,2.81
0.0008100000000000034,0.22,0.07,0.99,2.7,0.78,2.78
0.0008133333333333368,0.21,0.07,1.0,4.69,-2.21,3.22
0.0008166666666666702,0.2,0.06,1.01,2.38,-3.1,1.94
0.0008200000000000036,0.2,0.05,1.0,2.08,-4.27,1.27
0.0008233333333333369,0.2,0.05,1.01,1.56,-4.55,1.05
0.0008266666666666703,0.21,0.07,0.98,2.14,-1.36,1.15
0.0008300000000000037,0.22,0.07,1.0,2.24,0.06,2.15
0.0008333333333333371,0.21,0.07,1.03,0.7,-1.08,2.6
0.0008366666666666705,0.2,0.07,0.98,0.27,0.0,2.34
0.0008400000000000038,0.22,0.06,0.95,1.66,4.75,2.06
0.0008433333333333372,0.18,0.06,0.96,3.91,2.61,1.57
0.0008466666666666706,0.16,0.05,1.0,5.07,-0.61,0.21
0.000850000000000004,0.16,0.06,0.99,6.53,-5.18,-1.3
0.0008533333333333373,0.17,0.07,1.02,5.42,-6.43,-3.08
0.0008566666666666707,0.18,0.08,1.02,3.97,-6.06,-4.38
0.0008600000000000041,0.2,0.08,1.01,2.26,-2.21,-5.28
0.0008633333333333375,0.22,0.09,0.99,2.52,0.98,-5.39
0.0008666666666666709,0.23,0.1,1.0,2.11,1.77,-5.07
0.0008700000000000042,0.21,0.09,1.02,2.37,-1.6,-4.67
0.0008733333333333376,0.23,0.1,1.01,2.09,0.79,-3.83
0.000876666666666671,0.23,0.1,1.02,1.88,1.4,-2.84
0.0008800000000000044,0.2,0.09,1.01,2.85,-1.28,-3.16
0.0008833333333333377,0.21,0.09,1.02,2.49,-4.73,-3.73
0.0008866666666666711,0.2,0.09,1.03,2.9,-8.5,-4.72
0.0008900000000000045,0.26,0.11,1.02,0.6,-3.71,-3.59
0.0008933333333333379,0.26,0.1,0.98,1.5,-1.04,-2.63
0.0008966666666666713,0.23,0.1,1.01,1.54,-2.76,-2.12
0.0009000000000000046,0.24,0.1,1.03,-0.02,-5.73,-1.65
0.000903333333333338,0.23,0.1,1.0,-1.6,-0.24,-2.23
0.0009066666666666714,0.23,0.1,0.98,-2.82,6.44,-4.02
0.0009100000000000048,0.23,0.1,1.01,-3.66,3.69,-3.4
0.0009133333333333382,0.24,0.09,0.99,-1.16,-3.79,-0.79
0.0009166666666666715,0.22,0.09,0.97,1.76,-9.11,0.44
0.0009200000000000049,0.23,0.08,0.98,2.03,-7.62,0.06
0.0009233333333333383,0.23,0.09,0.98,1.68,-4.05,-0.87
0.0009266666666666717,0.21,0.09,0.99,2.84,-5.86,-2.11
0.000930000000000005,0.25,0.1,0.98,2.34,-2.63,-1.89
0.0009333333333333384,0.23,0.09,1.01,0.98,-3.65,-1.27
0.0009366666666666718,0.24,0.1,1.0,0.26,-0.14,-1.42
0.0009400000000000052,0.24,0.09,0.97,1.02,2.02,-1.57
0.0009433333333333386,0.22,0.09,1.01,0.43,2.53,-1.59
0.0009466666666666719,0.22,0.09,1.0,-0.27,1.25,-2.06
0.0009500000000000053,0.2,0.09,1.01,-0.47,-3.59,-2.52
0.0009533333333333387,0.22,0.09,1.01,-0.52,-4.06,-2.98
0.0009566666666666721,0.26,0.1,0.98,-0.2,2.08,-3.05
0.0009600000000000054,0.24,0.09,0.99,-0.96,6.43,-3.25
0.0009633333333333388,0.24,0.09,0.99,-1.62,5.63,-3.37
0.0009666666666666722,0.22,0.09,0.99,1.5,-1.15,-2.69
0.0009700000000000056,0.24,0.09,0.96,3.33,-2.31,-1.69
0.000973333333333339,0.25,0.1,0.98,2.95,-1.02,-1.48
0.0009766666666666723,0.23,0.1,0.97,0.96,3.65,-3.01
0.0009800000000000056,0.25,0.11,0.98,-0.84,9.59,-3.89
