time,accl_x,accl_y,accl_z,gyro_x,gyro_y,gyro_z
0.0,0.43,-0.16,1.05,-14.37,6.12,6.67
3.3333333333333333e-06,0.42,-0.18,1.06,-17.39,2.44,9.25
6.666666666666667e-06,0.41,-0.17,1.03,-18.35,0.34,11.6
9.999999999999999e-06,0.39,-0.2,1.0,-20.44,1.71,11.42
1.3333333333333333e-05,0.41,-0.18,1.0,-21.89,2.78,12.98
1.6666666666666667e-05,0.41,-0.19,1.04,-24.67,1.76,16.18
2e-05,0.35,-0.2,1.05,-29.18,-5.07,17.83
2.3333333333333336e-05,0.37,-0.22,0.99,-31.15,-2.44,17.34
2.666666666666667e-05,0.35,-0.24,0.9,-27.89,0.56,16.64
3.0000000000000004e-05,0.35,-0.25,0.9,-28.35,4.64,15.68
3.3333333333333335e-05,0.36,-0.26,0.88,-26.21,5.22,17.07
3.6666666666666666e-05,0.33,-0.28,0.91,-24.2,-0.53,18.27
3.9999999999999996e-05,0.32,-0.29,0.91,-24.08,-5.15,17.63
4.333333333333333e-05,0.32,-0.28,0.91,-23.86,-11.33,16.34
4.666666666666666e-05,0.32,-0.28,0.9,-23.88,-9.79,14.67
4.999999999999999e-05,0.3,-0.3,0.9,-25.01,-8.81,11.5
5.333333333333332e-05,0.31,-0.29,0.94,-28.79,-8.95,8.72
5.666666666666665e-05,0.4,-0.28,0.91,-27.44,-5.19,11.6
5.999999999999998e-05,0.44,-0.28,0.86,-22.0,-1.5,18.05
6.333333333333332e-05,0.37,-0.32,0.89,-22.17,-3.54,19.6
6.666666666666666e-05,0.32,-0.34,0.91,-24.75,-7.48,19.71
7e-05,0.31,-0.36,0.87,-26.4,-4.73,16.79
7.333333333333333e-05,0.3,-0.38,0.84,-22.38,-5.24,14.14
7.666666666666667e-05,0.31,-0.38,0.83,-25.71,1.66,10.27
8e-05,0.3,-0.39,0.83,-23.69,0.78,8.75
8.333333333333334e-05,0.32,-0.41,0.81,-20.43,-0.37,9.28
8.666666666666668e-05,0.32,-0.4,0.78,-17.6,-0.85,8.06
9.000000000000002e-05,0.32,-0.45,0.79,-13.6,-2.55,7.3
9.333333333333336e-05,0.31,-0.43,0.82,-15.11,-8.43,7.07
9.66666666666667e-05,0.31,-0.43,0.82,-17.08,-9.86,5.74
0.00010000000000000003,0.35,-0.42,0.78,-15.36,-2.24,5.1
0.00010333333333333337,0.35,-0.42,0.78,-13.44,3.34,4.78
0.00010666666666666671,0.36,-0.42,0.79,-10.64,5.79,6.56
0.00011000000000000004,0.35,-0.44,0.77,-4.81,4.87,7.88
0.00011333333333333338,0.28,-0.45,0.82,-2.92,-2.64,7.62
0.00011666666666666672,0.26,-0.45,0.83,-2.49,-10.12,6.32
0.00012000000000000006,0.3,-0.44,0.8,0.06,-6.98,4.85
0.0001233333333333334,0.3,-0.44,0.82,-1.71,-1.88,2.78
0.00012666666666666672,0.31,-0.43,0.81,-2.64,5.73,0.4
0.00013000000000000004,0.29,-0.44,0.8,-2.66,10.9,-2.99
0.00013333333333333337,0.26,-0.44,0.85,-3.68,5.95,-4.53
0.0001366666666666667,0.35,-0.41,0.86,-3.57,6.7,0.02
0.00014000000000000001,0.33,-0.43,0.83,-1.11,5.83,0.82
0.00014333333333333334,0.28,-0.43,0.82,-0.21,0.52,-1.34
0.00014666666666666666,0.29,-0.43,0.81,3.44,1.25,-2.67
0.00015,0.29,-0.44,0.79,6.67,3.13,-4.53
0.0001533333333333333,0.27,-0.45,0.79,8.96,5.53,-8.23
0.00015666666666666663,0.26,-0.46,0.85,6.93,1.34,-12.2
0.00015999999999999996,0.31,-0.43,0.82,5.79,2.9,-11.85
0.00016333333333333328,0.37,-0.41,0.79,10.95,6.95,-8.93
0.0001666666666666666,0.3,-0.42,0.81,12.58,3.44,-8.82
0.00016999999999999993,0.27,-0.42,0.84,11.5,1.31,-10.4
0.00017333333333333325,0.32,-0.42,0.81,12.53,7.39,-11.1
0.00017666666666666658,0.29,-0.42,0.82,12.66,10.46,-13.19
0.0001799999999999999,0.26,-0.42,0.84,7.91,10.73,-16.47
0.00018333333333333323,0.32,-0.4,0.81,8.58,18.14,-16.76
0.00018666666666666655,0.3,-0.42,0.79,12.55,15.21,-13.66
0.00018999999999999987,0.26,-0.43,0.8,14.76,10.4,-13.16
0.0001933333333333332,0.23,-0.44,0.82,12.21,9.45,-15.71
0.00019666666666666652,0.25,-0.42,0.77,11.59,16.44,-19.88
0.00019999999999999985,0.27,-0.41,0.73,15.28,31.18,-23.36
0.00020333333333333317,0.24,-0.38,0.83,18.46,25.37,-24.81
0.0002066666666666665,0.24,-0.36,0.92,15.47,16.95,-23.82
0.00020999999999999982,0.26,-0.34,0.97,8.2,10.52,-24.69
0.00021333333333333314,0.3,-0.32,0.92,6.08,12.5,-25.1
0.00021666666666666647,0.34,-0.31,0.91,3.21,14.12,-24.99
0.0002199999999999998,0.3,-0.3,0.96,-2.55,10.21,-27.71
0.00022333333333333311,0.37,-0.3,0.92,-1.36,17.27,-23.16
0.00022666666666666644,0.32,-0.27,0.98,-8.32,13.37,-25.92
0.00022999999999999976,0.33,-0.29,0.93,-6.29,9.5,-22.56
0.0002333333333333331,0.29,-0.3,0.96,-5.02,-1.69,-23.5
0.0002366666666666664,0.3,-0.32,0.89,-0.38,-3.16,-25.65
0.00023999999999999974,0.31,-0.28,0.85,6.21,-6.72,-32.46
0.00024333333333333306,0.29,-0.3,0.87,15.95,-15.66,-36.32
0.0002466666666666664,0.3,-0.28,0.96,20.95,-38.32,-41.8
0.00024999999999999973,0.29,-0.26,1.06,20.38,-70.56,-45.48
0.00025333333333333306,0.37,-0.24,1.08,16.05,-91.33,-45.89
0.0002566666666666664,0.48,-0.23,1.01,10.63,-80.58,-38.84
0.0002599999999999997,0.84,-0.14,0.76,5.44,-3.91,-14.52
0.00026333333333333303,0.69,-0.21,0.74,10.11,39.62,-7.37
0.00026666666666666635,0.39,-0.29,0.88,9.21,40.37,-5.4
0.0002699999999999997,0.32,-0.31,0.85,12.0,29.77,-8.55
0.000273333333333333,0.36,-0.31,0.8,18.53,32.27,-10.2
0.0002766666666666663,0.39,-0.27,0.85,21.45,30.2,-6.55
0.00027999999999999965,0.37,-0.25,0.93,22.89,19.57,-4.72
0.000283333333333333,0.34,-0.26,0.97,22.18,8.76,-5.45
0.0002866666666666663,0.32,-0.24,0.99,20.35,2.24,-7.53
0.0002899999999999996,0.35,-0.24,0.95,17.65,6.41,-9.97
0.00029333333333333295,0.39,-0.24,0.94,15.02,17.97,-8.73
0.00029666666666666627,0.4,-0.23,0.94,11.74,27.59,-7.16
0.0002999999999999996,0.32,-0.22,0.92,14.96,23.73,-9.53
0.0003033333333333329,0.3,-0.22,0.95,18.34,16.92,-12.08
0.00030666666666666624,0.34,-0.21,0.97,20.5,10.21,-10.61
0.00030999999999999957,0.37,-0.21,1.0,19.94,5.22,-7.22
0.0003133333333333329,0.35,-0.21,0.98,15.85,1.63,-7.08
0.0003166666666666662,0.38,-0.2,0.99,11.98,3.56,-6.0
0.00031999999999999954,0.34,-0.27,0.96,11.83,8.09,-4.27
0.00032333333333333286,0.35,-0.19,0.93,13.44,5.53,-5.57
0.0003266666666666662,0.38,-0.18,0.95,14.4,11.5,-2.93
0.0003299999999999995,0.38,-0.19,0.95,14.79,15.18,-2.5
0.00033333333333333283,0.32,-0.21,0.93,16.81,12.98,-5.36
0.00033666666666666616,0.28,-0.19,0.98,16.34,2.05,-5.92
0.0003399999999999995,0.35,-0.18,0.94,18.7,1.21,-4.2
0.0003433333333333328,0.34,-0.18,0.95,19.73,6.24,-4.35
0.00034666666666666613,0.3,-0.17,1.01,16.18,3.83,-6.15
0.00034999999999999945,0.29,-0.17,1.03,13.3,-1.56,-8.05
0.0003533333333333328,0.32,-0.15,1.04,10.21,-5.83,-9.51
0.0003566666666666661,0.36,-0.14,0.97,13.28,-3.53,-8.05
0.0003599999999999994,0.34,-0.15,0.98,13.59,-3.95,-7.33
0.00036333333333333275,0.36,-0.15,0.99,12.26,-5.37,-5.85
0.0003666666666666661,0.37,-0.14,0.95,13.53,2.58,-5.65
0.0003699999999999994,0.35,-0.14,0.98,12.49,4.31,-6.46
0.0003733333333333327,0.33,-0.15,1.03,10.09,-6.64,-6.4
0.00037666666666666605,0.35,-0.11,1.07,5.13,-16.66,-3.77
0.00037999999999999937,0.38,-0.1,1.07,-0.11,-19.31,-2.75
0.0003833333333333327,0.37,-0.12,1.07,-1.92,-25.68,-0.34
0.000386666666666666,0.4,-0.1,1.02,-2.98,-26.37,2.79
0.00038999999999999934,0.46,-0.1,0.94,-0.06,-7.47,2.6
0.00039333333333333267,0.44,-0.13,0.94,-0.67,11.59,1.5
0.000396666666666666,0.41,-0.13,0.95,-1.57,17.5,2.14
0.0003999999999999993,0.35,-0.16,0.94,1.16,12.9,3.63
0.00040333333333333264,0.32,-0.17,0.93,1.69,5.54,4.69
0.00040666666666666596,0.33,-0.17,0.91,1.97,1.37,4.76
0.0004099999999999993,0.36,-0.18,0.91,1.18,4.63,5.59
0.0004133333333333326,0.32,-0.17,0.93,0.81,4.93,4.49
0.00041666666666666593,0.31,-0.16,0.89,3.22,7.21,2.44
0.00041999999999999926,0.32,-0.17,0.89,5.08,8.35,1.56
0.0004233333333333326,0.31,-0.17,0.89,7.51,6.7,0.49
0.0004266666666666659,0.29,-0.17,0.92,7.6,3.91,-0.35
0.00042999999999999923,0.31,-0.16,0.91,9.63,2.21,-0.35
0.00043333333333333255,0.3,-0.16,0.96,8.53,-2.47,-0.47
0.0004366666666666659,0.3,-0.15,0.96,7.48,-5.1,0.02
0.0004399999999999992,0.33,-0.14,0.95,8.11,-5.47,-0.02
0.0004433333333333325,0.35,-0.14,0.95,9.69,-3.77,1.31
0.00044666666666666585,0.33,-0.14,0.95,11.86,-3.71,2.12
0.0004499999999999992,0.33,-0.14,0.97,11.56,-3.44,2.92
0.0004533333333333325,0.4,-0.12,0.94,12.52,5.85,5.63
0.0004566666666666658,0.36,-0.12,0.96,12.79,7.91,7.4
0.00045999999999999915,0.3,-0.14,1.0,11.25,5.62,7.11
0.00046333333333333247,0.31,-0.13,1.03,6.79,5.6,6.24
0.0004666666666666658,0.28,-0.13,1.0,5.51,4.81,3.51
0.0004699999999999991,0.27,-0.14,0.99,4.85,1.44,1.16
0.00047333333333333244,0.3,-0.14,0.98,5.69,0.12,0.06
0.00047666666666666577,0.32,-0.14,0.94,6.93,-0.43,-0.06
0.0004799999999999991,0.32,-0.13,0.91,10.99,0.53,-0.52
0.0004833333333333324,0.31,-0.13,0.95,9.95,2.32,-2.66
0.00048666666666666574,0.34,-0.11,0.96,9.45,6.2,-3.02
0.0004899999999999991,0.33,-0.11,0.96,8.78,6.02,-3.34
0.0004933333333333325,0.3,-0.11,1.01,6.56,-0.78,-3.89
0.0004966666666666659,0.29,-0.11,1.0,5.47,-5.73,-4.41
0.0004999999999999993,0.34,-0.11,0.95,6.24,-2.66,-4.92
0.0005033333333333326,0.33,-0.11,0.93,8.58,0.31,-5.4
0.000506666666666666,0.34,-0.11,0.94,9.45,5.02,-5.62
0.0005099999999999994,0.31,-0.11,0.97,9.1,1.5,-4.66
0.0005133333333333328,0.35,-0.1,0.94,8.31,3.25,-3.62
0.0005166666666666661,0.33,-0.09,0.92,10.11,6.82,-3.47
0.0005199999999999995,0.29,-0.09,0.92,13.19,6.66,-3.97
0.0005233333333333329,0.3,-0.1,0.97,13.1,6.52,-3.88
0.0005266666666666663,0.3,-0.1,0.97,8.67,6.14,-4.49
0.0005299999999999997,0.3,-0.1,0.94,7.66,8.14,-1.36
0.000533333333333333,0.29,-0.1,0.92,12.11,5.5,-6.14
0.0005366666666666664,0.3,-0.09,0.93,14.21,3.36,-5.53
0.0005399999999999998,0.32,-0.09,0.96,15.77,4.4,-5.94
0.0005433333333333332,0.31,-0.07,1.01,11.73,-2.34,-5.71
0.0005466666666666665,0.31,-0.07,0.99,11.65,-3.95,-5.24
0.0005499999999999999,0.28,-0.07,0.98,11.11,-10.35,-5.88
0.0005533333333333333,0.32,-0.06,0.95,11.83,-4.81,-7.51
0.0005566666666666667,0.33,-0.08,0.98,9.07,2.98,-10.02
0.0005600000000000001,0.36,-0.04,0.94,9.02,10.7,-9.65
0.0005633333333333334,0.36,-0.05,0.99,7.77,11.94,-9.36
0.0005666666666666668,0.33,-0.05,0.99,10.55,3.22,-5.65
0.0005700000000000002,0.32,-0.05,1.0,10.72,-4.17,-4.18
0.0005733333333333336,0.34,-0.05,1.0,7.83,-1.98,-4.73
0.000576666666666667,0.3,-0.05,0.96,7.98,-0.05,-6.6
0.0005800000000000003,0.29,-0.04,0.98,6.6,2.37,-9.65
0.0005833333333333337,0.34,-0.03,0.96,6.6,3.44,-9.42
0.0005866666666666671,0.36,-0.02,0.97,8.55,1.51,-6.95
0.0005900000000000005,0.34,-0.03,0.99,10.69,-2.41,-5.54
0.0005933333333333338,0.35,-0.02,1.0,9.02,-3.68,-2.82
0.0005966666666666672,0.33,-0.03,0.99,8.6,-1.25,-3.27
0.0006000000000000006,0.31,-0.03,0.99,6.18,-0.21,-4.35
0.000603333333333334,0.33,-0.02,0.96,5.59,2.09,-4.55
0.0006066666666666674,0.33,-0.02,0.96,5.97,0.72,-3.74
0.0006100000000000007,0.31,-0.02,1.0,5.97,-2.66,-3.6
0.0006133333333333341,0.32,-0.02,0.98,5.56,-1.54,-3.63
0.0006166666666666675,0.34,-0.03,0.95,6.56,5.47,-3.74
0.0006200000000000009,0.33,-0.04,0.94,7.59,3.13,-3.62
0.0006233333333333342,0.29,-0.03,0.96,10.38,-2.98,-3.68
0.0006266666666666676,0.29,-0.03,0.99,8.69,-5.59,-4.26
0.000630000000000001,0.32,-0.01,0.97,7.59,-0.99,-3.89
0.0006333333333333344,0.32,-0.01,0.96,5.1,3.63,-5.79
0.0006366666666666678,0.32,-0.01,0.94,6.21,5.91,-5.5
0.0006400000000000011,0.32,0.0,0.93,8.09,2.93,-4.06
0.0006433333333333345,0.33,-0.0,0.96,10.72,-7.25,-1.18
0.0006466666666666679,0.33,0.01,0.97,12.6,-16.05,-0.52
0.0006500000000000013,0.34,0.02,0.95,13.36,-11.15,2.35
0.0006533333333333346,0.35,0.04,0.99,11.05,-6.46,0.5
0.000656666666666668,0.36,0.03,0.98,8.64,0.26,-1.31
0.0006600000000000014,0.36,0.04,0.99,7.74,3.22,-1.95
0.0006633333333333348,0.35,0.03,0.99,8.24,1.54,-1.62
0.0006666666666666682,0.35,0.01,0.98,8.43,6.55,-3.73
0.0006700000000000015,0.36,0.03,0.99,6.9,9.21,-3.63
0.0006733333333333349,0.35,0.04,1.02,8.12,5.79,-1.94
0.0006766666666666683,0.32,0.02,1.03,8.11,-3.04,0.52
0.0006800000000000017,0.33,0.03,1.03,5.57,-3.51,1.53
0.000683333333333335,0.3,0.02,1.04,2.81,-3.63,-0.12
0.0006866666666666684,0.3,0.02,1.0,1.31,-1.76,-1.8
0.0006900000000000018,0.33,0.02,0.98,2.21,2.03,-4.26
0.0006933333333333352,0.36,0.11,0.98,1.37,3.42,-1.53
0.0006966666666666686,0.31,0.02,0.99,2.02,4.32,-2.58
0.0007000000000000019,0.28,0.02,1.01,0.41,1.1,-2.9
0.0007033333333333353,0.29,0.02,1.0,0.46,0.18,-3.28
0.0007066666666666687,0.3,0.03,0.97,0.52,2.55,-4.79
0.0007100000000000021,0.3,0.03,0.98,-1.98,5.63,-5.44
0.0007133333333333355,0.33,0.03,0.94,-0.02,5.71,-4.0
0.0007166666666666688,0.31,0.04,0.95,2.81,-1.01,-2.02
0.0007200000000000022,0.29,0.03,0.97,2.78,-4.89,-1.92
0.0007233333333333356,0.29,0.04,0.97,1.13,-6.32,-2.98
0.000726666666666669,0.33,0.04,0.95,-0.66,0.37,-3.15
0.0007300000000000023,0.34,0.03,0.93,0.2,3.79,-2.43
0.0007333333333333357,0.33,0.02,0.9,1.08,4.26,-0.76
0.0007366666666666691,0.3,0.01,0.88,6.49,1.74,-0.08
0.0007400000000000025,0.27,0.0,0.89,10.03,-1.73,-0.81
0.0007433333333333359,0.25,-0.01,0.84,15.98,-4.58,-3.79
0.0007466666666666692,0.31,0.01,0.97,9.8,2.58,-6.35
0.0007500000000000026,0.33,0.03,0.98,8.12,3.83,-6.5
0.000753333333333336,0.3,0.03,0.94,10.49,2.34,-6.95
0.0007566666666666694,0.28,0.04,1.0,9.42,-9.5,-5.8
0.0007600000000000028,0.32,0.01,1.01,9.88,-11.62,-5.56
0.0007633333333333361,0.36,0.05,0.98,6.78,-1.48,-5.53
0.0007666666666666695,0.37,0.07,0.99,7.85,1.79,-4.55
0.0007700000000000029,0.35,0.07,1.04,5.34,4.11,-4.63
0.0007733333333333363,0.33,0.07,1.04,3.76,5.19,-5.25
0.0007766666666666696,0.34,0.06,1.01,3.4,6.47,-5.71
0.000780000000000003,0.33,0.06,1.02,4.21,0.02,-3.69
0.0007833333333333364,0.32,0.06,1.02,1.83,-7.68,-2.03
0.0007866666666666698,0.33,0.05,0.98,2.09,-5.42,-2.37
0.0007900000000000032,0.33,0.03,0.99,0.92,-0.55,-3.44
0.0007933333333333365,0.3,0.06,1.01,-0.02,-0.76,-4.14
0.0007966666666666699,0.31,0.07,0.99,-1.16,3.28,-4.85
0.0008000000000000033,0.34,0.05,0.96,2.02,2.46,-3.21
0.0008033333333333367,0.3,0.05,0.98,2.15,-1.83,-2.24
0.00080666666666667,0.29,0.07,0.98,1.5,-3.8,-3.27
0.0008100000000000034,0.32,0.09,0.94,1.54,-1.71,-4.06
0.0008133333333333368,0.32,0.07,0.96,-0.05,1.28,-4.53
0.0008166666666666702,0.32,0.06,0.95,-0.23,-0.37,-4.24
0.0008200000000000036,0.32,0.06,0.94,2.49,-1.39,-3.69
0.0008233333333333369,0.34,0.07,0.96,1.73,0.47,-2.35
0.0008266666666666703,0.32,0.07,0.94,2.63,1.27,-2.41
0.0008300000000000037,0.32,0.06,0.96,1.91,2.09,-1.98
0.0008333333333333371,0.32,0.07,0.92,4.26,0.96,-2.5
0.0008366666666666705,0.31,0.07,0.97,3.59,-0.79,-3.15
0.0008400000000000038,0.31,0.08,0.96,4.08,-0.27,-3.54
0.0008433333333333372,0.32,0.07,0.96,4.32,0.78,-3.63
0.0008466666666666706,0.3,0.07,0.98,2.7,-4.29,-2.93
0.000850000000000004,0.33,0.07,0.93,5.07,-3.42,-2.12
0.0008533333333333373,0.33,0.08,0.97,4.2,0.15,-3.21
0.0008566666666666707,0.34,0.08,0.97,1.6,3.19,-3.45
0.0008600000000000041,0.36,0.09,0.93,3.4,4.84,-1.33
0.0008633333333333375,0.33,0.08,0.96,6.49,-0.55,-0.11
0.0008666666666666709,0.33,0.08,0.94,7.71,-2.53,0.87
0.0008700000000000042,0.33,0.08,0.93,1.88,3.88,30.11
0.0008733333333333376,0.35,0.12,0.95,4.35,-6.82,17.85
0.000876666666666671,0.31,0.07,1.0,4.46,-37.01,18.12
0.0008800000000000044,0.33,0.05,0.95,7.54,-60.55,22.96
0.0008833333333333377,0.35,0.04,0.82,14.92,-59.47,25.68
0.0008866666666666711,0.4,0.07,0.86,10.6,-26.55,23.85
0.0008900000000000045,0.4,0.09,0.93,-3.98,11.15,8.11
0.0008933333333333379,0.35,0.1,1.02,-18.7,25.77,3.11
0.0008966666666666713,0.34,0.06,0.97,-7.15,16.47,2.99
0.0009000000000000046,0.35,0.08,0.99,-0.17,2.17,6.56
0.000903333333333338,0.29,0.06,1.0,2.53,-17.37,4.99
0.0009066666666666714,0.38,0.07,0.95,9.88,-9.77,5.31
0.0009100000000000048,0.38,0.08,0.95,9.97,2.26,-0.02
0.0009133333333333382,0.33,0.07,1.06,6.18,1.28,-2.85
0.0009166666666666715,0.31,0.09,1.09,4.24,-4.27,-4.58
0.0009200000000000049,0.36,0.11,1.05,3.95,-4.06,-4.58
0.0009233333333333383,0.37,0.1,1.06,2.11,-4.49,-3.24
0.0009266666666666717,0.36,0.07,1.08,-1.91,-5.37,-3.11
0.000930000000000005,0.38,0.1,1.04,-5.48,-1.57,-3.48
0.0009333333333333384,0.38,0.1,0.98,-6.47,5.62,-3.42
0.0009366666666666718,0.35,0.09,0.99,-6.31,5.01,-3.47
0.0009400000000000052,0.35,0.08,0.95,-6.4,3.51,-2.98
0.0009433333333333386,0.35,0.09,0.96,-6.64,3.56,-3.28
0.0009466666666666719,0.36,0.09,0.93,-6.66,6.05,-2.92
0.0009500000000000053,0.38,0.08,0.91,-4.15,9.89,-1.95
0.0009533333333333387,0.35,0.08,0.9,-1.37,6.24,-1.28
0.0009566666666666721,0.32,0.07,0.9,1.07,1.18,-1.71
0.0009600000000000054,0.32,0.07,0.91,3.82,-1.94,-1.74
0.0009633333333333388,0.34,0.08,0.91,4.92,-2.63,-1.66
0.0009666666666666722,0.33,0.09,0.97,2.55,-4.15,-3.07
0.0009700000000000056,0.36,0.09,0.96,0.09,-0.2,-4.64
0.000973333333333339,0.38,0.09,0.96,0.37,2.23,-4.03
0.0009766666666666723,0.38,0.08,0.98,-1.1,4.75,-3.44
0.0009800000000000056,0.38,0.08,0.95,0.26,7.02,-2.08
