time,acce_x,acce_y,acce_z,gyro_x,gyro_y,gyro_z
0.0,0.07,-0.23,0.91,2.5,9.66,-4.9
3.3333333333333333e-06,0.08,-0.23,0.92,4.34,9.53,-4.32
6.666666666666667e-06,0.09,-0.22,0.95,4.78,7.34,-2.73
9.999999999999999e-06,0.07,-0.22,0.97,5.92,-1.21,-3.6
1.3333333333333333e-05,0.05,-0.2,0.98,8.78,-11.63,-5.33
1.6666666666666667e-05,-0.0,-0.24,1.04,8.75,-30.92,-11.73
2e-05,0.01,-0.24,1.04,4.03,-36.81,-12.81
2.3333333333333336e-05,0.12,-0.21,0.96,-1.65,-13.94,-9.02
2.666666666666667e-05,0.22,-0.19,0.88,6.52,10.78,-5.16
3.0000000000000004e-05,0.08,-0.24,1.0,9.01,2.52,-3.65
3.3333333333333335e-05,0.06,-0.26,0.99,11.76,-4.0,-4.12
3.6666666666666666e-05,0.15,-0.23,0.93,14.17,3.42,-2.5
3.9999999999999996e-05,0.12,-0.22,1.05,9.36,1.33,3.16
4.333333333333333e-05,0.11,-0.21,1.07,4.03,4.2,3.51
4.666666666666666e-05,0.09,-0.23,1.02,0.98,10.64,3.21
4.999999999999999e-05,0.04,-0.22,1.0,-0.5,10.46,0.9
5.333333333333332e-05,0.02,-0.22,0.99,1.39,6.85,-1.21
5.666666666666665e-05,0.03,-0.23,0.98,1.27,4.46,-2.52
5.999999999999998e-05,0.04,-0.23,0.94,-0.21,-3.31,10.79
6.333333333333332e-05,0.08,-0.22,0.92,6.05,2.81,-2.0
6.666666666666666e-05,0.12,-0.2,0.94,4.76,9.56,-1.21
7e-05,0.08,-0.21,0.95,2.31,11.37,6.72
7.333333333333333e-05,0.01,-0.22,0.97,3.39,12.98,4.99
7.666666666666667e-05,-0.02,-0.2,1.05,2.81,2.38,-1.54
8e-05,0.06,-0.19,0.98,0.32,17.37,3.36
8.333333333333334e-05,0.02,-0.23,0.98,1.24,20.7,1.16
8.666666666666668e-05,0.0,-0.18,1.01,1.5,12.58,-5.07
9.000000000000002e-05,0.0,-0.2,0.97,4.67,7.57,-6.99
9.333333333333336e-05,0.0,-0.2,0.99,3.27,7.66,-9.27
9.66666666666667e-05,0.07,-0.18,1.07,-2.92,18.56,-8.43
0.00010000000000000003,0.04,-0.19,1.02,-4.0,20.95,11.31
0.00010333333333333337,0.03,-0.2,1.03,-2.92,11.94,-2.6
0.00010666666666666671,0.04,-0.21,1.06,-7.11,10.66,-4.24
0.00011000000000000004,0.07,-0.21,1.05,-4.53,11.71,-6.2
0.00011333333333333338,0.04,-0.2,1.07,-5.51,12.26,-8.21
0.00011666666666666672,0.04,-0.21,1.09,-6.03,6.46,-8.46
0.00012000000000000006,0.03,-0.21,1.07,-3.65,-4.17,-8.0
0.0001233333333333334,0.04,-0.2,1.06,-1.95,-7.73,-8.09
0.00012666666666666672,0.06,-0.19,1.08,-7.04,-9.94,-6.82
0.00013000000000000004,0.06,-0.2,1.0,-2.84,-5.83,-8.5
0.00013333333333333337,0.07,-0.2,1.0,-1.04,-2.79,-7.65
0.0001366666666666667,0.03,-0.2,1.06,-1.88,-9.66,-7.02
0.00014000000000000001,0.05,-0.2,1.0,-2.02,-8.7,-6.53
0.00014333333333333334,0.02,-0.22,0.97,0.23,-12.76,5.68
0.00014666666666666666,0.03,-0.22,0.96,2.78,-15.53,0.15
0.00015,-0.01,-0.22,1.03,0.17,-27.94,-5.56
0.0001533333333333333,0.05,-0.22,0.94,2.38,-20.81,-6.73
0.00015666666666666663,0.05,-0.24,0.96,4.93,-16.49,-8.12
0.00015999999999999996,0.05,-0.23,1.01,5.79,-17.42,-7.45
0.00016333333333333328,0.06,-0.21,1.0,5.97,-14.52,-6.08
0.0001666666666666666,0.05,-0.21,0.99,6.78,-13.21,-5.31
0.00016999999999999993,0.05,-0.21,1.02,3.98,-9.6,-1.01
0.00017333333333333325,0.07,-0.2,0.96,4.98,-2.81,-5.05
0.00017666666666666658,0.06,-0.21,0.93,7.34,4.69,-8.35
0.0001799999999999999,0.1,-0.22,0.98,6.14,8.61,-7.66
0.00018333333333333323,0.14,-0.19,0.97,8.43,12.89,-3.62
0.00018666666666666655,0.14,-0.19,0.95,10.44,24.18,2.29
0.00018999999999999987,0.09,-0.2,1.01,11.92,17.85,0.53
0.0001933333333333332,0.07,-0.19,1.06,8.99,15.6,-0.23
0.00019666666666666652,0.08,-0.19,1.03,7.97,19.5,1.18
0.00019999999999999985,0.07,-0.17,1.04,6.95,17.59,0.7
0.00020333333333333317,0.03,-0.18,1.08,4.18,10.6,-0.66
0.0002066666666666665,0.07,-0.18,1.02,3.25,13.74,-2.12
0.00020999999999999982,0.1,-0.18,1.01,2.38,20.14,-0.76
0.00021333333333333314,0.13,-0.17,0.97,5.68,25.45,2.9
0.00021666666666666647,0.06,-0.17,1.01,6.67,21.63,4.05
0.0002199999999999998,0.04,-0.18,0.99,7.92,17.4,3.86
0.00022333333333333311,-0.0,-0.19,0.98,8.5,9.3,1.13
0.00022666666666666644,0.07,-0.09,0.95,6.95,10.03,1.02
0.00022999999999999976,0.04,-0.18,1.05,5.3,7.91,1.16
0.0002333333333333331,0.06,-0.16,1.01,5.86,6.05,2.63
0.0002366666666666664,0.02,-0.17,1.04,4.27,4.89,11.21
0.00023999999999999974,0.02,-0.17,0.99,7.01,2.72,2.17
0.00024333333333333306,0.04,-0.18,0.96,7.76,6.32,2.0
0.0002466666666666664,0.01,-0.18,1.04,3.79,-2.35,-0.75
0.00024999999999999973,0.05,-0.16,1.0,4.2,-4.75,1.01
0.00025333333333333306,0.04,-0.17,1.01,3.24,-1.98,0.85
0.0002566666666666664,0.04,-0.16,1.03,2.12,-1.34,1.5
0.0002599999999999997,0.05,-0.17,0.99,2.64,1.97,1.37
0.00026333333333333303,0.03,-0.17,1.0,2.96,0.43,1.4
0.00026666666666666635,0.04,-0.16,1.0,3.83,-1.51,2.38
0.0002699999999999997,0.03,-0.17,0.99,3.51,-3.91,2.03
0.000273333333333333,0.04,-0.16,1.0,4.17,-5.51,3.25
0.0002766666666666663,0.04,-0.17,0.96,6.21,-3.56,3.85
0.00027999999999999965,0.01,-0.16,1.04,1.8,-7.48,3.31
0.000283333333333333,0.03,-0.15,0.98,2.18,-3.19,2.87
0.0002866666666666663,0.04,-0.16,0.94,5.01,-0.2,1.8
0.0002899999999999996,0.01,-0.16,0.99,4.93,-4.24,1.21
0.00029333333333333295,0.04,-0.14,1.01,3.24,-4.43,2.06
0.00029666666666666627,0.07,-0.14,0.97,3.82,-1.76,3.44
0.0002999999999999996,0.03,-0.15,0.96,6.55,-2.17,3.74
0.0003033333333333329,0.03,-0.15,0.98,7.42,-4.89,3.95
0.00030666666666666624,0.01,-0.15,0.98,7.82,-6.53,3.89
0.00030999999999999957,0.01,-0.14,1.03,6.26,-9.36,3.34
0.0003133333333333329,0.03,-0.15,1.0,5.28,-8.75,3.86
0.0003166666666666662,0.03,-0.14,1.0,5.73,-3.66,4.12
0.00031999999999999954,0.0,-0.15,0.98,6.56,-1.08,2.96
0.00032333333333333286,0.02,-0.18,1.01,5.48,0.72,3.92
0.0003266666666666662,0.02,-0.15,0.99,6.98,0.14,4.31
0.0003299999999999995,0.01,-0.16,0.98,8.32,-1.28,4.2
0.00033333333333333283,-0.01,-0.14,1.0,8.26,-3.95,2.81
0.00033666666666666616,0.03,-0.14,0.98,9.56,-0.02,3.33
0.0003399999999999995,0.01,-0.13,1.01,8.92,1.98,3.37
0.0003433333333333328,0.0,-0.12,1.02,8.89,2.87,2.85
0.00034666666666666613,0.01,-0.14,1.0,8.55,3.66,2.47
0.00034999999999999945,-0.03,-0.13,1.06,5.66,-5.15,1.95
0.0003533333333333328,-0.03,-0.12,1.0,8.34,-7.57,0.31
0.0003566666666666661,-0.02,-0.14,0.98,9.19,-4.82,-2.87
0.0003599999999999994,0.03,-0.13,0.99,9.88,-1.36,-3.04
0.00036333333333333275,0.04,-0.13,0.97,12.7,-0.32,-2.23
0.0003666666666666661,0.07,-0.12,0.99,15.6,0.49,0.14
0.0003699999999999994,0.09,-0.1,1.02,16.17,1.3,4.23
0.0003733333333333327,0.09,-0.09,1.02,16.46,6.11,6.02
0.00037666666666666605,0.1,-0.08,1.02,15.34,7.11,9.25
0.00037999999999999937,0.11,-0.08,1.09,11.22,12.79,12.38
0.0003833333333333327,0.06,-0.06,1.09,7.22,12.55,13.71
0.000386666666666666,0.03,-0.09,1.04,8.63,16.64,10.82
0.00038999999999999934,0.02,-0.1,1.02,10.18,20.24,8.08
0.00039333333333333267,0.01,-0.11,1.12,5.15,15.45,8.27
0.000396666666666666,-0.01,-0.1,1.1,3.39,8.43,8.66
0.0003999999999999993,-0.0,-0.09,1.05,4.44,5.28,9.44
0.00040333333333333264,-0.01,-0.03,1.1,1.4,0.17,10.18
0.00040666666666666596,-0.02,-0.09,1.03,3.77,0.96,9.15
0.0004099999999999993,0.0,-0.06,1.07,1.1,5.33,8.89
0.0004133333333333326,0.01,-0.08,1.06,-1.33,6.84,10.9
0.00041666666666666593,-0.05,-0.09,1.0,0.58,6.34,9.48
0.00041999999999999926,-0.03,-0.09,0.99,1.18,6.27,7.13
0.0004233333333333326,-0.02,-0.08,1.01,0.6,6.67,6.82
0.0004266666666666659,-0.03,-0.08,1.02,0.03,6.78,6.18
0.00042999999999999923,-0.03,-0.07,1.01,-1.37,4.69,4.89
0.00043333333333333255,-0.04,-0.06,1.03,-2.38,2.32,4.75
0.0004366666666666659,-0.11,-0.08,1.02,-3.1,-1.18,-0.26
0.0004399999999999992,-0.12,-0.08,0.98,-2.18,1.79,-7.11
0.0004433333333333325,-0.08,-0.1,0.93,2.38,0.37,-10.06
0.00044666666666666585,-0.03,-0.07,0.99,0.0,-5.54,-8.87
0.0004499999999999992,-0.0,-0.05,0.99,-0.7,-9.76,-6.75
0.0004533333333333325,0.02,-0.07,0.96,0.09,-10.89,-3.53
0.0004566666666666658,-0.11,-0.26,0.99,1.82,-12.43,-1.27
0.00045999999999999915,0.04,-0.06,0.96,3.13,-6.64,1.6
0.00046333333333333247,0.11,0.05,1.0,0.29,-3.27,6.87
0.0004666666666666658,0.03,-0.04,1.04,1.79,-3.95,9.54
0.0004699999999999991,-0.03,0.01,1.01,4.06,-18.15,-1.86
0.00047333333333333244,-0.11,-0.13,1.04,-0.43,-18.09,0.7
0.00047666666666666577,-0.08,-0.1,1.04,-9.28,-6.6,-6.58
0.0004799999999999991,-0.02,-0.06,1.0,-7.88,3.57,-8.69
0.0004833333333333324,0.02,-0.03,1.03,-10.76,7.68,-8.92
0.00048666666666666574,-0.02,-0.07,1.02,-7.63,-2.29,-8.58
0.0004899999999999991,0.01,-0.08,1.01,-6.96,-7.53,-8.47
0.0004933333333333325,0.05,-0.08,0.99,-5.13,-6.5,-7.28
0.0004966666666666659,0.1,-0.09,0.97,-1.56,-1.94,-4.99
0.0004999999999999993,0.1,-0.08,0.94,4.47,3.02,-0.87
0.0005033333333333326,0.12,-0.08,0.97,9.53,11.33,2.96
0.000506666666666666,0.07,-0.07,1.05,10.26,14.58,5.11
0.0005099999999999994,0.05,-0.09,1.01,10.34,20.87,4.47
0.0005133333333333328,0.02,-0.09,1.08,7.6,17.94,4.75
0.0005166666666666661,0.0,-0.1,1.04,8.66,15.5,5.07
0.0005199999999999995,-0.02,-0.09,1.04,9.19,10.87,5.63
0.0005233333333333329,-0.03,-0.08,1.09,6.38,7.07,4.18
0.0005266666666666663,-0.04,-0.07,1.03,5.97,8.99,2.31
0.0005299999999999997,-0.04,-0.09,1.03,4.12,10.14,-0.31
0.000533333333333333,-0.05,-0.09,1.0,8.82,7.22,-0.49
0.0005366666666666664,-0.02,-0.09,1.01,10.29,6.98,-2.55
0.0005399999999999998,-0.03,-0.09,0.98,12.4,4.02,-2.9
0.0005433333333333332,0.03,-0.07,0.97,13.22,13.63,-0.87
0.0005466666666666665,-0.02,-0.04,1.09,7.92,5.73,-0.31
0.0005499999999999999,-0.03,-0.06,1.07,5.54,0.78,-2.87
0.0005533333333333333,-0.02,-0.05,1.02,5.79,3.15,-3.57
0.0005566666666666667,-0.02,-0.11,1.0,6.23,4.38,-4.6
0.0005600000000000001,0.0,-0.08,0.94,10.06,5.51,-4.52
0.0005633333333333334,0.01,-0.06,1.0,10.67,2.56,-1.92
0.0005666666666666668,0.01,-0.04,1.05,7.04,-3.48,0.9
0.0005700000000000002,0.01,-0.03,1.02,5.89,-0.95,1.95
0.0005733333333333336,0.0,-0.04,1.05,3.6,2.21,1.83
0.000576666666666667,-0.01,-0.05,1.02,2.0,6.6,1.19
0.0005800000000000003,-0.01,-0.06,0.99,3.51,8.75,0.89
0.0005833333333333337,-0.0,-0.06,0.99,3.71,7.1,2.11
0.0005866666666666671,-0.01,-0.06,0.97,7.05,7.57,3.19
0.0005900000000000005,-0.01,-0.05,0.97,8.95,8.0,4.4
0.0005933333333333338,-0.02,-0.05,1.0,7.91,9.08,4.85
0.0005966666666666672,-0.05,-0.03,1.09,2.17,3.05,4.92
0.0006000000000000006,-0.05,-0.04,1.05,0.63,-0.11,4.44
0.000603333333333334,-0.08,-0.04,1.0,1.34,1.11,1.21
0.0006066666666666674,-0.06,-0.04,0.99,4.55,1.68,0.63
0.0006100000000000007,-0.04,-0.03,0.99,8.56,-5.95,-12.49
0.0006133333333333341,-0.08,-0.04,1.03,4.85,-6.4,2.06
0.0006166666666666675,-0.08,-0.05,0.97,7.13,-3.13,-1.34
0.0006200000000000009,-0.06,-0.05,1.02,5.89,-3.65,-2.21
0.0006233333333333342,-0.06,-0.06,1.01,6.67,-3.07,-3.4
0.0006266666666666676,-0.17,-0.18,1.05,8.35,-9.45,-4.53
0.000630000000000001,-0.1,-0.08,1.04,9.02,-17.54,-8.64
0.0006333333333333344,-0.05,-0.04,1.05,6.34,-16.53,-9.33
0.0006366666666666678,-0.0,-0.02,1.0,6.21,-9.98,-7.59
0.0006400000000000011,0.01,-0.03,1.05,5.77,-7.73,-4.89
0.0006433333333333345,-0.0,-0.04,1.06,6.32,-12.12,-2.85
0.0006466666666666679,0.0,-0.03,1.01,8.21,-12.17,-9.24
0.0006500000000000013,0.04,-0.02,0.98,5.5,2.05,-3.66
0.0006533333333333346,0.01,-0.03,1.01,5.91,3.85,-2.67
0.000656666666666668,0.01,-0.03,1.03,6.72,2.12,-2.03
0.0006600000000000014,0.01,-0.02,1.03,5.98,1.8,-1.69
0.0006633333333333348,-0.01,-0.02,1.03,7.39,5.33,-7.85
0.0006666666666666682,-0.03,0.01,1.05,4.89,3.63,-3.21
0.0006700000000000015,-0.03,-0.02,0.97,9.59,6.52,-5.37
0.0006733333333333349,-0.04,-0.01,1.0,9.01,4.11,-3.11
0.0006766666666666683,-0.04,-0.03,0.97,12.64,1.83,-6.72
0.0006800000000000017,-0.03,-0.01,1.03,8.34,2.31,-6.23
0.000683333333333335,-0.03,-0.02,0.98,11.86,2.23,-4.7
0.0006866666666666684,-0.04,0.0,0.97,9.44,-0.72,-4.58
0.0006900000000000018,-0.02,0.0,0.97,11.59,1.73,-3.95
0.0006933333333333352,-0.04,-0.01,0.99,11.54,-0.21,-4.41
0.0006966666666666686,-0.08,-0.0,1.0,16.67,6.44,-6.92
0.0007000000000000019,-0.05,-0.01,0.98,15.73,3.95,-7.13
0.0007033333333333353,-0.01,0.02,1.0,10.99,7.8,-5.5
0.0007066666666666687,-0.02,0.02,0.97,13.02,11.44,-4.53
0.0007100000000000021,-0.05,0.02,1.02,13.37,5.83,-5.68
0.0007133333333333355,-0.03,0.02,1.02,13.6,6.06,-5.88
0.0007166666666666688,-0.01,0.03,1.05,13.19,10.21,-6.29
0.0007200000000000022,-0.02,0.03,1.06,11.47,7.97,-5.74
0.0007233333333333356,-0.02,0.04,1.1,11.42,3.94,-4.43
0.000726666666666669,-0.05,0.04,1.1,9.34,-2.66,-5.5
0.0007300000000000023,-0.05,0.04,1.07,8.6,-3.83,-7.4
0.0007333333333333357,-0.02,0.03,1.04,9.56,-2.7,-8.85
0.0007366666666666691,0.01,0.05,1.07,10.14,-2.84,-7.39
0.0007400000000000025,0.03,0.07,1.06,8.23,-4.08,-4.02
0.0007433333333333359,0.04,0.07,1.09,5.73,-2.18,-1.24
0.0007466666666666692,0.04,0.07,1.05,4.63,0.73,0.89
0.0007500000000000026,0.01,0.05,1.04,5.51,1.1,2.0
0.000753333333333336,-0.02,0.06,1.04,6.58,-2.11,2.55
0.0007566666666666694,-0.03,0.06,1.03,6.06,-5.53,2.0
0.0007600000000000028,-0.02,0.07,1.01,5.6,-1.56,2.27
0.0007633333333333361,-0.04,0.07,1.03,3.44,-1.6,0.61
0.0007666666666666695,-0.03,0.06,1.0,4.12,-1.11,0.72
0.0007700000000000029,-0.06,0.06,1.01,7.11,-5.97,0.2
0.0007733333333333363,-0.04,0.07,1.0,4.53,-7.3,0.5
0.0007766666666666696,-0.04,0.08,0.96,6.02,-7.82,1.07
0.000780000000000003,-0.06,0.07,1.0,6.79,-10.43,-0.84
0.0007833333333333364,-0.02,0.07,0.96,6.47,-2.66,-0.82
0.0007866666666666698,0.03,0.07,0.95,8.21,7.27,0.4
0.0007900000000000032,-0.03,0.07,1.02,7.76,3.6,2.24
0.0007933333333333365,-0.06,0.08,1.08,4.87,-3.19,3.6
0.0007966666666666699,-0.07,0.09,1.08,0.78,-9.31,1.54
0.0008000000000000033,-0.07,0.09,0.99,2.95,-4.21,0.15
0.0008033333333333367,-0.05,0.08,0.99,3.94,-1.95,-0.64
0.00080666666666667,-0.04,0.08,1.02,1.59,-5.15,-1.28
0.0008100000000000034,-0.03,0.09,0.98,3.59,-5.1,-1.76
0.0008133333333333368,-0.03,0.09,0.95,6.06,-5.33,-1.79
0.0008166666666666702,-0.03,0.09,1.01,3.94,-7.27,-2.2
0.0008200000000000036,-0.02,0.1,1.0,2.03,-6.14,-2.46
0.0008233333333333369,-0.02,0.09,1.0,1.04,-3.37,-2.6
0.0008266666666666703,-0.04,0.1,1.0,-0.35,-5.79,-3.73
0.0008300000000000037,-0.01,0.09,0.99,-1.3,-1.8,-4.21
0.0008333333333333371,-0.01,0.08,1.01,-5.01,-1.25,-3.76
0.0008366666666666705,0.01,0.07,0.93,-0.7,2.38,-3.4
0.0008400000000000038,-0.05,0.09,1.0,-1.22,-11.24,-1.21
0.0008433333333333372,-0.06,0.11,1.1,-15.13,-34.67,3.5
0.0008466666666666706,-0.11,0.08,1.27,-37.91,-49.16,6.73
0.000850000000000004,0.0,0.13,1.09,-49.22,-44.17,-0.76
0.0008533333333333373,0.12,0.08,1.0,-50.14,-14.32,-1.04
0.0008566666666666707,0.12,0.04,0.9,-48.23,19.54,-2.08
0.0008600000000000041,0.08,0.0,0.89,-39.86,30.7,-1.21
0.0008633333333333375,-0.01,-0.03,0.97,-30.98,16.67,-0.92
0.0008666666666666709,0.05,0.01,1.05,-31.5,3.42,0.75
0.0008700000000000042,0.07,0.02,1.06,-30.55,-2.56,6.46
0.0008733333333333376,0.06,-0.01,1.02,-24.31,3.69,12.09
0.000876666666666671,-0.04,-0.01,0.98,-14.06,3.02,8.14
0.0008800000000000044,-0.06,-0.04,0.98,-9.05,2.46,2.29
0.0008833333333333377,-0.06,-0.03,1.03,-2.5,2.06,-2.35
0.0008866666666666711,-0.03,-0.03,1.04,0.69,-2.14,-2.41
0.0008900000000000045,-0.01,-0.02,1.0,-8.24,9.19,26.69
0.0008933333333333379,0.01,-0.03,0.98,7.21,0.53,-3.77
0.0008966666666666713,0.01,-0.04,1.03,6.61,0.27,-2.75
0.0009000000000000046,0.05,-0.03,1.0,7.42,1.92,-0.09
0.000903333333333338,0.03,-0.0,1.02,6.37,3.05,1.08
0.0009066666666666714,0.03,-0.01,1.05,6.84,2.72,-0.75
0.0009100000000000048,0.02,0.0,1.04,7.27,0.24,0.05
0.0009133333333333382,0.08,0.06,1.01,8.53,6.47,1.47
0.0009166666666666715,0.04,0.04,1.05,5.92,6.44,0.35
0.0009200000000000049,-0.02,-0.01,1.02,6.18,0.53,4.58
0.0009233333333333383,-0.02,-0.01,1.04,7.69,-6.79,-1.69
0.0009266666666666717,-0.03,0.0,1.04,8.18,-9.21,-2.15
0.000930000000000005,-0.03,0.0,1.01,8.7,-8.49,-5.16
0.0009333333333333384,-0.04,-0.0,1.05,8.55,-11.3,-7.4
0.0009366666666666718,-0.02,-0.01,1.03,7.76,-14.6,-8.96
0.0009400000000000052,0.02,-0.0,0.99,10.46,-13.34,-10.2
0.0009433333333333386,0.01,0.0,1.02,10.82,-9.76,-11.45
0.0009466666666666719,-0.0,-0.02,0.98,11.82,-6.09,-14.49
0.0009500000000000053,0.03,0.0,0.97,15.16,3.91,-16.6
0.0009533333333333387,0.03,0.04,1.02,21.21,1.37,-21.92
0.0009566666666666721,-0.01,0.12,1.0,10.11,-8.08,-8.21
0.0009600000000000054,0.0,0.07,0.96,17.02,-10.76,-8.5
0.0009633333333333388,0.07,0.08,1.0,13.8,-7.37,-4.7
0.0009666666666666722,0.05,0.05,1.02,12.03,-5.22,-2.27
0.0009700000000000056,0.01,0.04,0.98,13.73,-8.52,-2.12
0.000973333333333339,0.02,0.06,0.96,17.24,-9.51,-1.94
0.0009766666666666723,0.02,0.04,1.0,17.07,-10.08,-1.92
0.0009800000000000056,0.02,0.05,1.0,15.54,-7.04,-3.36
0.0009833333333333389,-0.01,0.05,1.03,16.99,-10.27,-3.44
0.0009866666666666721,0.01,0.06,1.05,17.56,-11.71,-4.44
0.0009900000000000054,0.05,0.06,1.02,23.47,-8.75,-5.36
0.0009933333333333387,0.06,0.06,1.03,26.29,-7.62,-2.87
0.000996666666666672,0.05,0.06,1.03,26.96,-7.6,-4.18
0.0010000000000000052,0.04,0.07,1.06,24.46,-6.82,-3.95
0.0010033333333333385,0.09,0.09,1.04,25.1,-5.16,-3.44
0.0010066666666666718,0.07,0.09,1.07,23.94,-6.08,-0.84
0.001010000000000005,0.1,0.11,1.05,22.98,1.21,0.99
0.0010133333333333383,0.09,0.12,1.02,22.69,6.64,7.21
0.0010166666666666716,0.04,0.12,1.09,17.53,4.44,2.67
0.0010200000000000048,0.04,0.12,1.12,12.4,5.04,6.61
0.0010233333333333381,0.05,0.1,1.05,13.59,3.24,6.55
0.0010266666666666714,0.03,0.1,1.04,13.28,2.98,2.4
0.0010300000000000047,0.03,0.1,1.07,8.92,-2.02,-0.67
0.001033333333333338,0.03,0.12,1.06,6.66,-5.24,-1.86
0.0010366666666666712,0.04,0.12,1.04,5.89,-5.6,-2.58
0.0010400000000000045,0.04,0.13,1.05,4.56,-7.07,-2.37
0.0010433333333333377,0.04,0.13,1.03,3.92,-7.73,-2.09
0.001046666666666671,0.04,0.13,1.03,2.56,-7.42,-2.4
0.0010500000000000043,0.06,0.14,1.01,3.16,-3.51,-1.74
0.0010533333333333375,0.07,0.14,1.01,2.35,-1.86,-0.98
0.0010566666666666708,0.05,0.14,1.01,1.85,-3.42,-0.38
0.001060000000000004,0.05,0.14,1.02,1.48,-8.84,0.9
0.0010633333333333374,0.04,0.13,1.01,3.45,-12.63,1.63
0.0010666666666666706,0.05,0.14,1.01,2.98,-9.51,1.05
0.0010700000000000039,0.05,0.14,1.02,1.24,-7.62,-0.46
0.0010733333333333372,0.06,0.18,1.01,1.91,-9.11,-0.03
0.0010766666666666704,0.06,0.13,0.99,3.05,-7.36,-0.47
0.0010800000000000037,0.05,0.14,1.01,3.91,-10.24,0.35
0.001083333333333337,0.05,0.14,1.02,3.63,-13.69,-0.06
0.0010866666666666702,0.04,0.15,1.03,1.18,-14.5,-1.5
0.0010900000000000035,0.07,0.13,0.97,3.02,-8.2,-3.22
0.0010933333333333368,0.1,0.13,0.95,4.73,-2.37,-2.95
0.00109666666666667,0.05,0.14,1.02,2.37,-9.31,-3.34
0.0011000000000000033,0.04,0.13,1.03,0.89,-12.52,-4.84
0.0011033333333333366,0.12,0.17,0.98,2.26,-5.3,-1.31
0.0011066666666666699,0.1,0.15,0.99,2.24,0.15,-0.92
0.0011100000000000031,0.07,0.14,1.0,1.86,3.33,-1.97
0.0011133333333333364,0.08,0.15,1.02,0.78,1.36,-1.88
0.0011166666666666697,0.08,0.14,1.03,-0.49,-2.5,-1.63
0.001120000000000003,0.08,0.15,1.03,-2.84,-1.86,-0.99
0.0011233333333333362,0.07,0.15,1.03,-2.37,-3.31,-1.08
0.0011266666666666695,0.07,0.14,1.02,-6.02,-3.25,-1.4
0.0011300000000000027,0.08,0.13,1.02,-6.55,-3.74,-2.31
0.001133333333333336,0.09,0.15,1.01,-7.27,-3.47,-3.18
0.0011366666666666693,0.1,0.14,0.97,-5.24,-2.37,-1.05
0.0011400000000000026,0.11,0.13,0.95,-1.5,-1.34,-1.07
0.0011433333333333358,0.09,0.13,0.94,4.35,2.14,-0.99
0.001146666666666669,0.09,0.13,1.02,3.18,0.32,-0.85
0.0011500000000000024,0.08,0.13,1.05,-0.52,-0.17,-0.63
0.0011533333333333356,0.08,0.13,1.02,-0.89,-0.43,-1.85
0.001156666666666669,0.09,0.12,1.03,-0.17,-3.21,-2.6
0.0011600000000000022,0.1,0.11,1.04,2.2,6.98,-6.89
0.0011633333333333354,0.05,0.11,1.11,0.93,-8.0,-4.37
0.0011666666666666687,0.1,0.14,1.1,-1.18,-7.79,-3.59
0.001170000000000002,0.14,0.13,1.04,-0.76,-2.29,-3.57
0.0011733333333333353,0.12,0.12,1.08,-2.35,-1.33,-3.86
0.0011766666666666685,0.1,0.13,1.08,-2.7,-7.56,-3.02
0.0011800000000000018,0.12,0.13,1.05,-1.4,-10.85,-2.03
0.001183333333333335,0.12,0.13,1.03,-1.34,-8.34,-2.29
0.0011866666666666683,0.14,0.14,1.03,-3.24,-4.6,-1.71
0.0011900000000000016,0.13,0.14,1.04,-4.0,-6.18,0.24
0.0011933333333333349,0.13,0.14,0.99,-3.15,-4.38,1.02
0.0011966666666666681,0.1,0.15,0.98,-1.28,-4.95,1.45
0.0012000000000000014,0.09,0.13,0.99,-1.48,-5.04,0.84
0.0012033333333333347,0.08,0.14,0.97,0.27,-5.62,0.15
0.001206666666666668,0.07,0.14,0.98,0.95,-3.25,-1.51
0.0012100000000000012,0.06,0.14,0.96,2.95,-2.76,-3.33
0.0012133333333333345,0.05,0.14,0.99,3.68,-3.21,-6.02
0.0012166666666666678,0.08,0.14,0.96,5.19,1.83,-8.43
0.001220000000000001,0.07,0.13,1.0,3.18,3.24,-10.29
0.0012233333333333343,0.08,0.15,1.0,1.97,2.08,-11.31
