time,acce_x,acce_y,acce_z,gyro_x,gyro_y,gyro_z
0.0,0.12,-0.35,0.94,8.4,8.21,-3.33
3.3333333333333333e-06,0.11,-0.34,0.93,8.95,5.5,-4.43
6.666666666666667e-06,0.12,-0.34,0.95,7.83,5.04,-5.45
9.999999999999999e-06,0.14,-0.33,0.96,5.77,6.55,-6.85
1.3333333333333333e-05,0.21,-0.43,0.83,8.4,9.27,-6.08
1.6666666666666667e-05,0.16,-0.33,0.94,10.9,1.71,-4.09
2e-05,0.14,-0.33,0.97,10.67,-2.67,-4.6
2.3333333333333336e-05,0.18,-0.32,0.95,9.39,5.71,-5.24
2.666666666666667e-05,0.18,-0.33,0.96,7.8,8.43,-5.19
3.0000000000000004e-05,0.15,-0.32,0.99,6.5,2.89,-4.52
3.3333333333333335e-05,0.14,-0.32,0.95,7.4,2.41,-4.53
3.6666666666666666e-05,0.15,-0.32,0.94,8.98,5.45,-5.21
3.9999999999999996e-05,0.15,-0.33,0.96,8.31,1.71,-4.72
4.333333333333333e-05,0.15,-0.31,1.0,6.0,-2.99,-3.76
4.666666666666666e-05,0.17,-0.3,0.96,6.92,1.94,-3.73
4.999999999999999e-05,0.16,-0.31,0.95,6.96,5.42,-4.11
5.333333333333332e-05,0.14,-0.32,0.96,6.47,1.62,-3.33
5.666666666666665e-05,0.14,-0.31,0.97,5.02,-1.98,-2.47
5.999999999999998e-05,0.14,-0.31,0.94,5.59,-1.15,-3.62
6.333333333333332e-05,0.15,-0.31,0.92,4.31,2.95,-4.9
6.666666666666666e-05,0.16,-0.32,0.91,5.11,2.85,-4.17
7e-05,0.19,-0.32,0.88,7.89,4.05,-1.66
7.333333333333333e-05,0.15,-0.33,0.86,11.33,2.27,0.11
7.666666666666667e-05,0.11,-0.32,0.89,13.48,-2.29,-0.63
8e-05,0.11,-0.32,0.92,11.97,-4.6,-2.47
8.333333333333334e-05,0.12,-0.3,0.94,7.51,0.23,-5.45
8.666666666666668e-05,0.16,-0.29,0.89,8.35,11.33,-5.85
9.000000000000002e-05,0.14,-0.3,0.91,9.36,12.56,-5.25
9.333333333333336e-05,0.11,-0.3,0.95,7.28,4.93,-5.28
9.66666666666667e-05,0.14,-0.3,0.92,7.47,3.39,-4.78
0.00010000000000000003,0.14,-0.3,0.91,9.21,0.69,-4.08
0.00010333333333333337,0.16,-0.3,0.9,11.91,1.25,-2.73
0.00010666666666666671,0.14,-0.29,0.93,13.25,0.26,-3.15
0.00011000000000000004,0.13,-0.28,0.98,11.97,-2.79,-3.07
0.00011333333333333338,0.14,-0.26,0.96,11.57,-0.47,-2.66
0.00011666666666666672,0.2,-0.24,1.01,7.98,0.18,1.11
0.00012000000000000006,0.21,-0.24,1.02,5.48,-0.64,5.69
0.0001233333333333334,0.19,-0.25,1.01,3.11,0.72,8.5
0.00012666666666666672,0.18,-0.24,0.99,2.66,7.4,10.9
0.00013000000000000004,0.17,-0.27,0.95,3.54,14.89,10.2
0.00013333333333333337,0.08,-0.27,1.0,2.79,11.45,6.43
0.0001366666666666667,0.07,-0.28,1.01,1.69,11.73,1.88
0.00014000000000000001,0.08,-0.26,1.06,-1.63,8.03,-2.06
0.00014333333333333334,0.12,-0.25,1.04,-3.16,4.93,-1.69
0.00014666666666666666,0.15,-0.27,1.01,-2.73,1.04,2.89
0.00015,0.13,-0.27,1.05,-9.25,-3.15,2.78
0.0001533333333333333,0.15,-0.26,0.97,-9.05,6.38,2.21
0.00015666666666666663,0.13,-0.27,0.97,-8.5,9.54,1.86
0.00015999999999999996,0.11,-0.29,0.96,-4.84,7.94,2.53
0.00016333333333333328,0.09,-0.29,0.94,-2.17,7.11,0.61
0.0001666666666666666,0.06,-0.29,0.98,-2.9,4.58,-3.62
0.00016999999999999993,0.07,-0.29,0.97,-4.27,2.24,-6.81
0.00017333333333333325,0.12,-0.27,0.92,-0.49,3.97,-7.05
0.00017666666666666658,0.15,-0.27,0.94,1.86,5.24,-4.61
0.0001799999999999999,0.11,-0.26,1.01,-1.3,3.16,-5.37
0.00018333333333333323,0.13,-0.25,0.97,-2.47,5.24,-5.22
0.00018666666666666655,0.14,-0.27,0.97,-2.95,4.37,-3.77
0.00018999999999999987,0.13,-0.27,0.94,-0.49,4.96,-2.66
0.0001933333333333332,0.12,-0.28,0.95,-0.9,8.75,-3.95
0.00019666666666666652,0.1,-0.27,0.94,-0.78,13.34,-6.35
0.00019999999999999985,0.13,-0.27,0.92,1.62,14.21,-4.9
0.00020333333333333317,0.13,-0.27,0.94,4.35,7.02,-1.56
0.0002066666666666665,0.14,-0.27,0.92,9.5,1.24,2.69
0.00020999999999999982,0.14,-0.26,0.99,6.5,-2.53,4.61
0.00021333333333333314,0.13,-0.26,0.96,5.1,2.75,5.27
0.00021666666666666647,0.1,-0.26,0.97,2.99,5.77,3.05
0.0002199999999999998,0.05,-0.27,0.95,1.45,8.05,-1.44
0.00022333333333333311,0.09,-0.27,0.92,4.23,9.94,-2.96
0.00022666666666666644,0.1,-0.26,0.98,3.48,5.42,-1.89
0.00022999999999999976,0.1,-0.27,0.99,3.53,4.52,-1.54
0.0002333333333333331,0.13,-0.27,0.94,6.66,10.82,-0.98
0.0002366666666666664,0.08,-0.27,0.96,6.85,8.58,-1.74
0.00023999999999999974,0.08,-0.27,0.95,11.13,8.55,-2.21
0.00024333333333333306,0.07,-0.27,0.97,13.18,2.66,-3.13
0.0002466666666666664,0.07,-0.25,1.03,11.27,1.53,-4.75
0.00024999999999999973,0.09,-0.24,1.01,11.69,2.24,-5.33
0.00025333333333333306,0.13,-0.22,1.06,8.78,3.8,-3.24
0.0002566666666666664,0.11,-0.22,1.07,6.35,2.82,-1.79
0.0002599999999999997,0.12,-0.23,1.03,4.27,3.82,-1.51
0.00026333333333333303,0.09,-0.25,1.02,3.21,5.11,-2.2
0.00026666666666666635,0.08,-0.25,1.0,3.77,6.35,-2.79
0.0002699999999999997,0.09,-0.25,1.02,2.27,7.71,-3.02
0.000273333333333333,0.07,-0.25,0.97,4.75,9.5,-4.46
0.0002766666666666663,0.07,-0.24,0.98,7.25,9.68,-5.42
0.00027999999999999965,0.06,-0.23,1.03,6.44,2.98,-4.85
0.000283333333333333,0.06,-0.23,1.05,4.06,-2.21,-3.88
0.0002866666666666663,0.08,-0.22,1.01,3.3,-1.79,-2.99
0.0002899999999999996,0.09,-0.23,1.01,2.03,1.13,-3.56
0.00029333333333333295,0.1,-0.23,0.99,0.93,3.54,-4.05
0.00029666666666666627,0.09,-0.24,0.98,0.92,3.27,-4.79
0.0002999999999999996,0.12,-0.23,0.98,2.98,4.6,-2.12
0.0003033333333333329,0.08,-0.23,0.98,3.86,3.83,-2.12
0.00030666666666666624,0.09,-0.24,0.97,4.44,5.59,-2.43
0.00030999999999999957,0.06,-0.23,1.01,3.34,1.8,-2.76
0.0003133333333333329,0.08,-0.24,0.98,3.42,-0.56,-2.52
0.0003166666666666662,0.09,-0.24,0.94,6.79,1.1,-1.56
0.00031999999999999954,0.07,-0.24,0.96,7.47,0.89,-2.18
0.00032333333333333286,0.1,-0.23,0.96,7.33,1.98,-2.31
0.0003266666666666662,0.09,-0.22,0.96,6.9,1.77,-1.5
0.0003299999999999995,0.09,-0.22,0.96,8.82,2.09,-0.18
0.00033333333333333283,0.1,-0.21,0.97,9.56,3.15,0.93
0.00033666666666666616,0.07,-0.22,0.99,9.02,2.03,-0.79
0.0003399999999999995,0.07,-0.21,0.99,8.2,3.88,0.05
0.0003433333333333328,0.07,-0.22,0.97,8.99,4.58,0.14
0.00034666666666666613,0.05,-0.22,0.95,10.43,1.21,-0.12
0.00034999999999999945,0.07,-0.23,0.95,12.26,1.08,-0.63
0.0003533333333333328,0.08,-0.21,0.97,13.83,2.02,-0.56
0.0003566666666666661,0.08,-0.19,1.0,12.95,0.15,0.15
0.0003599999999999994,0.06,-0.2,1.02,12.58,-2.44,-0.08
0.00036333333333333275,0.07,-0.19,1.02,11.59,-3.31,0.9
0.0003666666666666661,0.06,-0.19,1.01,10.37,-2.24,0.69
0.0003699999999999994,0.05,-0.2,0.98,10.79,1.98,-0.79
0.0003733333333333327,0.07,-0.19,1.01,9.91,4.38,-1.11
0.00037666666666666605,0.07,-0.19,1.0,10.24,3.8,-0.64
0.00037999999999999937,0.04,-0.19,0.99,11.95,1.48,-0.84
0.0003833333333333327,0.04,-0.2,1.0,13.89,-2.18,-1.4
0.000386666666666666,0.04,-0.18,1.05,12.7,-5.59,-1.47
0.00038999999999999934,0.04,-0.18,1.02,12.58,-3.77,-3.42
0.00039333333333333267,0.02,-0.16,1.08,8.21,-8.47,-5.74
0.000396666666666666,0.07,-0.16,1.07,5.34,-5.77,-6.92
0.0003999999999999993,0.08,-0.17,1.03,4.61,-3.31,-6.78
0.00040333333333333264,0.1,-0.16,0.97,7.68,0.78,-4.12
0.00040666666666666596,0.11,-0.16,0.98,5.95,5.59,-2.82
0.0004099999999999993,0.08,-0.17,1.0,6.23,3.25,-1.51
0.0004133333333333326,0.06,-0.16,0.98,8.44,0.66,-1.97
0.00041666666666666593,0.05,-0.16,1.01,8.29,-4.15,-2.27
0.00041999999999999926,0.05,-0.15,1.01,7.39,-8.27,-2.89
0.0004233333333333326,0.08,-0.16,0.98,7.5,-7.63,-2.55
0.0004266666666666659,0.11,-0.16,0.96,8.56,-2.09,-2.96
0.00042999999999999923,0.12,-0.15,0.96,10.63,2.21,-2.55
0.00043333333333333255,0.12,-0.13,1.0,10.05,2.61,-0.6
0.0004366666666666659,0.09,-0.14,1.0,13.47,-2.7,1.01
0.0004399999999999992,0.09,-0.15,1.01,14.89,-5.16,0.78
0.0004433333333333325,0.06,-0.14,1.03,16.03,-5.44,-1.44
0.00044666666666666585,0.09,-0.12,1.08,13.02,-3.89,-2.81
0.0004499999999999992,0.11,-0.09,1.07,10.56,-1.54,-0.34
0.0004533333333333325,0.13,-0.1,1.03,8.82,3.48,-0.4
0.0004566666666666658,0.11,-0.1,1.07,4.37,2.55,0.46
0.00045999999999999915,0.14,-0.1,1.03,2.76,6.55,2.61
0.00046333333333333247,0.09,-0.12,0.99,3.57,7.22,3.08
0.0004666666666666658,0.05,-0.14,1.02,3.73,3.08,2.87
0.0004699999999999991,0.06,-0.13,0.99,4.55,1.97,1.57
0.00047333333333333244,0.06,-0.14,1.0,4.75,-2.46,1.4
0.00047666666666666577,0.07,-0.12,1.0,5.21,-4.82,1.92
0.0004799999999999991,0.11,-0.12,1.01,4.49,-5.3,3.27
0.0004833333333333324,0.11,-0.1,0.98,4.05,-0.69,3.68
0.00048666666666666574,0.1,-0.12,1.0,4.2,1.24,4.29
0.0004899999999999991,0.09,-0.13,0.97,4.85,4.24,4.05
0.0004933333333333325,0.07,-0.13,0.97,7.91,2.84,3.86
0.0004966666666666659,0.08,-0.12,1.0,10.11,2.21,4.93
0.0004999999999999993,0.1,-0.11,0.99,9.33,7.92,4.82
0.0005033333333333326,0.08,-0.12,0.99,10.95,4.98,5.33
0.000506666666666666,0.09,-0.12,1.01,10.52,4.08,6.17
0.0005099999999999994,0.05,-0.11,1.03,11.25,-0.03,5.8
0.0005133333333333328,0.07,-0.09,1.01,11.47,0.9,5.16
0.0005166666666666661,0.1,-0.06,1.02,12.85,1.73,6.56
0.0005199999999999995,0.1,-0.08,1.05,10.63,2.93,7.48
0.0005233333333333329,0.1,-0.09,1.04,10.0,4.44,8.82
0.0005266666666666663,0.05,-0.1,1.03,9.48,3.42,7.24
0.0005299999999999997,0.06,-0.1,1.03,8.76,2.09,6.43
0.000533333333333333,0.07,-0.09,1.02,4.96,4.52,5.22
0.0005366666666666664,0.05,-0.09,1.01,4.27,1.37,4.55
0.0005399999999999998,0.03,-0.1,0.99,7.27,-3.05,4.26
0.0005433333333333332,0.08,-0.1,0.96,9.71,-4.69,5.42
0.0005466666666666665,0.07,-0.09,0.98,8.79,-3.16,5.25
0.0005499999999999999,0.05,-0.1,1.0,9.77,-3.22,4.12
0.0005533333333333333,0.07,-0.08,1.02,7.85,2.7,4.31
0.0005566666666666667,0.05,-0.09,1.02,7.3,4.43,3.57
0.0005600000000000001,0.04,-0.09,1.02,6.95,1.08,3.33
0.0005633333333333334,0.05,-0.09,1.02,8.05,-2.05,3.45
0.0005666666666666668,0.05,-0.08,0.99,7.82,-2.56,3.01
0.0005700000000000002,0.06,-0.06,1.0,7.62,-1.95,2.21
0.0005733333333333336,0.07,-0.08,0.98,9.5,-4.72,2.61
0.000576666666666667,0.06,-0.07,0.99,9.28,-5.07,2.53
0.0005800000000000003,0.09,-0.06,1.01,8.03,-0.9,3.13
0.0005833333333333337,0.05,-0.06,1.02,7.31,-0.34,1.85
0.0005866666666666671,0.06,-0.06,1.02,5.45,1.6,0.93
0.0005900000000000005,0.05,-0.07,1.02,5.34,1.57,0.47
0.0005933333333333338,0.1,-0.05,0.99,12.14,-1.22,3.91
0.0005966666666666672,0.06,-0.05,1.03,11.08,-3.51,3.3
0.0006000000000000006,0.05,-0.05,1.03,10.56,-6.49,2.72
0.000603333333333334,0.07,-0.04,1.04,8.58,-4.84,2.02
0.0006066666666666674,0.06,-0.05,1.04,7.42,-7.86,2.05
0.0006100000000000007,0.08,-0.04,1.01,7.31,-8.82,1.69
0.0006133333333333341,0.11,-0.05,1.03,4.58,-3.91,2.09
0.0006166666666666675,0.12,-0.02,0.97,6.24,5.83,3.57
0.0006200000000000009,0.1,-0.03,1.03,5.19,6.34,4.55
0.0006233333333333342,0.05,-0.04,1.03,4.7,2.84,4.53
0.0006266666666666676,0.04,-0.05,1.02,5.65,-2.02,4.32
0.000630000000000001,0.05,-0.05,1.01,5.21,-1.94,2.89
0.0006333333333333344,0.06,-0.05,0.99,7.22,-2.79,2.2
0.0006366666666666678,0.06,-0.05,1.02,6.06,-6.32,2.49
0.0006400000000000011,0.07,-0.05,1.0,7.31,-7.59,2.84
0.0006433333333333345,0.06,-0.04,0.98,7.85,-2.81,2.66
0.0006466666666666679,0.05,-0.04,1.02,6.24,-2.89,2.35
0.0006500000000000013,0.04,-0.04,1.0,7.97,-3.48,1.39
0.0006533333333333346,0.05,-0.03,0.97,9.6,-2.98,0.53
0.000656666666666668,0.05,-0.03,1.0,10.32,-7.51,0.02
0.0006600000000000014,0.06,-0.04,0.96,12.96,-8.09,-0.18
0.0006633333333333348,0.07,-0.03,0.94,16.9,-9.28,0.35
0.0006666666666666682,0.07,-0.02,1.04,12.63,-10.52,-0.2
0.0006700000000000015,0.1,0.0,1.01,11.62,-0.66,-1.76
0.0006733333333333349,0.09,0.01,1.04,9.02,5.73,-2.82
0.0006766666666666683,0.12,0.01,1.04,8.03,5.62,-3.66
0.0006800000000000017,0.12,0.01,1.05,8.09,0.82,0.44
0.000683333333333335,0.09,0.0,1.02,10.55,-4.37,1.39
0.0006866666666666684,0.13,0.02,1.02,11.89,-1.01,3.6
0.0006900000000000018,0.09,0.01,1.03,11.53,0.58,1.88
0.0006933333333333352,0.1,0.03,1.07,8.18,-1.54,1.77
0.0006966666666666686,0.14,0.03,1.04,7.4,-0.64,4.64
0.0007000000000000019,0.08,0.02,1.0,7.8,-2.29,4.64
0.0007033333333333353,0.08,0.01,1.03,6.58,-0.55,4.02
0.0007066666666666687,0.11,0.02,1.01,5.04,6.31,3.63
0.0007100000000000021,0.07,0.0,0.99,6.53,7.57,2.76
0.0007133333333333355,0.04,0.01,1.0,7.34,2.53,2.26
0.0007166666666666688,0.05,0.01,1.03,5.13,-1.92,2.47
0.0007200000000000022,0.05,0.0,0.99,7.08,-1.8,1.31
0.0007233333333333356,0.04,0.0,0.98,9.01,0.53,-0.66
0.000726666666666669,0.06,0.02,1.01,8.29,2.34,-1.47
0.0007300000000000023,0.08,0.01,1.02,8.34,3.97,-2.08
0.0007333333333333357,0.06,0.02,1.01,9.16,3.28,-2.43
0.0007366666666666691,0.09,0.02,0.99,10.43,4.89,-1.89
0.0007400000000000025,0.03,0.03,1.08,6.93,-4.2,-3.11
0.0007433333333333359,0.05,0.03,1.02,8.32,-5.97,-3.79
0.0007466666666666692,0.09,0.03,0.99,10.02,-3.65,-4.23
0.0007500000000000026,0.09,0.04,1.03,8.43,-1.88,-4.66
0.000753333333333336,0.13,0.06,1.01,8.6,1.1,-2.53
0.0007566666666666694,0.11,0.05,1.01,9.13,3.91,-1.4
0.0007600000000000028,0.08,0.05,1.04,6.0,2.7,-1.71
0.0007633333333333361,0.08,0.06,1.0,7.76,5.19,-1.79
0.0007666666666666695,0.05,0.04,1.0,9.21,-1.22,-2.21
0.0007700000000000029,0.05,0.05,1.02,8.5,-5.8,-2.52
0.0007733333333333363,0.09,0.05,1.0,9.53,-2.05,-2.95
0.0007766666666666696,0.1,0.06,1.01,8.82,1.65,-3.16
0.000780000000000003,0.07,0.06,1.06,5.94,0.56,-3.44
0.0007833333333333364,0.09,0.07,1.05,4.11,0.15,-3.39
0.0007866666666666698,0.09,0.06,1.02,6.03,2.95,-3.83
0.0007900000000000032,0.09,0.07,1.04,4.9,4.7,-4.08
0.0007933333333333365,0.09,0.07,1.05,2.69,3.04,-3.89
0.0007966666666666699,0.08,0.08,1.04,3.79,1.34,-3.19
0.0008000000000000033,0.09,0.07,1.04,4.37,-3.08,-2.31
0.0008033333333333367,0.09,0.07,1.03,4.06,-5.44,-2.06
0.00080666666666667,0.1,0.07,1.02,4.56,-4.89,-1.71
0.0008100000000000034,0.1,0.07,1.01,5.07,-3.3,-1.56
0.0008133333333333368,0.16,0.13,1.01,3.44,0.24,-2.03
0.0008166666666666702,0.12,0.09,1.06,-0.96,4.89,-3.22
0.0008200000000000036,0.14,0.08,0.98,0.81,8.34,-2.03
0.0008233333333333369,0.09,0.07,1.0,1.73,3.34,-0.5
0.0008266666666666703,0.08,0.07,1.0,2.2,-3.53,0.58
0.0008300000000000037,0.09,0.07,1.0,3.02,-4.12,0.18
0.0008333333333333371,0.1,0.08,0.99,2.93,-2.29,-0.4
0.0008366666666666705,0.11,0.07,1.0,1.48,-1.36,-0.72
0.0008400000000000038,0.12,0.08,0.97,3.4,1.05,-0.37
0.0008433333333333372,0.11,0.08,1.0,2.56,2.38,-0.27
0.0008466666666666706,0.11,0.09,1.0,0.98,5.57,-0.02
0.000850000000000004,0.08,0.09,1.0,0.47,0.64,-0.18
0.0008533333333333373,0.06,0.09,0.98,0.26,-1.21,-0.92
0.0008566666666666707,0.06,0.08,0.96,1.6,-6.15,-1.48
0.0008600000000000041,0.05,0.06,0.91,4.7,-10.69,-3.69
0.0008633333333333375,0.11,0.07,0.91,8.18,-11.02,-5.36
0.0008666666666666709,0.21,0.09,0.91,8.93,-0.93,-1.63
0.0008700000000000042,0.2,0.12,0.94,9.13,2.44,3.54
0.0008733333333333376,0.14,0.13,1.11,0.32,-0.89,5.48
0.000876666666666671,0.1,0.13,1.06,-4.53,-4.53,3.28
0.0008800000000000044,0.07,0.09,1.05,-11.07,-6.2,-0.66
0.0008833333333333377,0.12,0.08,1.1,-19.02,-2.05,-1.95
0.0008866666666666711,0.09,0.09,1.1,-37.65,-12.85,-2.72
0.0008900000000000045,0.17,0.06,1.06,-30.34,5.31,-0.34
0.0008933333333333379,0.05,0.09,1.1,-38.81,-11.71,-1.76
0.0008966666666666713,0.05,0.02,1.01,-22.08,-8.14,0.53
0.0009000000000000046,0.08,0.06,1.06,-19.91,-6.56,1.66
0.000903333333333338,0.06,0.02,1.01,-19.27,-12.82,-3.36
0.0009066666666666714,0.23,0.01,0.96,-15.97,1.18,2.0
0.0009100000000000048,0.1,0.04,1.01,-14.03,-1.76,1.45
0.0009133333333333382,0.14,-0.04,0.95,-10.69,-3.39,4.08
0.0009166666666666715,0.11,0.01,1.0,-8.7,8.18,5.8
0.0009200000000000049,0.01,0.01,0.97,-5.77,-1.82,0.11
0.0009233333333333383,0.07,0.01,0.96,-3.85,-0.29,-0.49
0.0009266666666666717,0.09,0.02,0.97,-1.71,-4.85,0.61
0.000930000000000005,0.11,0.01,0.93,-2.56,0.5,1.31
0.0009333333333333384,0.11,-0.05,0.85,-2.26,-2.85,-1.13
0.0009366666666666718,0.1,0.04,1.02,-9.02,0.17,1.08
0.0009400000000000052,0.1,0.03,1.02,-18.32,10.84,1.24
0.0009433333333333386,0.04,0.08,1.14,-28.02,14.46,-6.24
0.0009466666666666719,0.07,0.01,0.98,-24.38,11.69,-7.44
0.0009500000000000053,0.06,-0.01,0.99,-15.16,0.85,-3.18
0.0009533333333333387,0.06,0.07,1.04,-11.01,-12.78,-4.52
0.0009566666666666721,0.14,0.01,0.92,-3.77,-3.05,-2.89
0.0009600000000000054,0.17,-0.02,1.0,-4.29,4.9,-1.6
0.0009633333333333388,0.15,-0.05,0.91,-0.61,1.51,-1.21
0.0009666666666666722,0.14,0.01,1.02,0.92,3.47,0.47
0.0009700000000000056,0.07,-0.01,1.05,1.98,-2.82,1.63
0.000973333333333339,0.06,-0.01,1.06,4.47,-14.66,0.0
0.0009766666666666723,0.09,-0.02,1.02,3.57,-8.4,-1.69
0.0009800000000000056,0.14,0.01,1.04,4.7,-7.07,0.7
0.0009833333333333389,0.12,-0.0,1.04,3.31,-0.64,0.35
