time,acce_x,acce_y,acce_z,gyro_x,gyro_y,gyro_z
0.0,0.36,-0.38,0.87,-8.23,-8.96,16.11
3.3333333333333333e-06,0.37,-0.37,0.86,-11.42,-6.93,13.56
6.666666666666667e-06,0.36,-0.38,0.82,-11.54,-4.98,11.05
9.999999999999999e-06,0.38,-0.4,0.77,-9.47,-2.76,8.79
1.3333333333333333e-05,0.37,-0.41,0.83,-9.07,-2.34,6.52
1.6666666666666667e-05,0.38,-0.41,0.81,-8.12,0.61,3.86
2e-05,0.38,-0.41,0.78,-4.06,2.41,2.14
2.3333333333333336e-05,0.37,-0.41,0.79,-0.09,-1.4,0.87
2.666666666666667e-05,0.39,-0.41,0.79,2.93,-2.4,-0.35
3.0000000000000004e-05,0.4,-0.42,0.79,4.18,3.28,-1.98
3.3333333333333335e-05,0.36,-0.41,0.81,3.37,5.94,-4.92
3.6666666666666666e-05,0.36,-0.42,0.8,1.86,7.57,-7.02
3.9999999999999996e-05,0.37,-0.42,0.76,3.27,8.37,-9.01
4.333333333333333e-05,0.35,-0.43,0.76,4.81,3.91,-11.6
4.666666666666666e-05,0.37,-0.42,0.73,7.15,2.55,-14.08
4.999999999999999e-05,0.4,-0.37,0.69,12.61,3.5,-17.37
5.333333333333332e-05,0.4,-0.39,0.72,16.37,3.31,-20.76
5.666666666666665e-05,0.43,-0.37,0.78,17.1,0.06,-21.94
5.999999999999998e-05,0.47,-0.32,0.81,18.15,-1.33,-20.66
6.333333333333332e-05,0.5,-0.3,0.84,19.15,-4.98,-16.81
6.666666666666666e-05,0.53,-0.29,0.88,16.58,-8.18,-12.66
7e-05,0.54,-0.3,0.81,16.95,-2.46,-10.21
7.333333333333333e-05,0.52,-0.3,0.79,19.1,-0.92,-10.21
7.666666666666667e-05,0.52,-0.3,0.83,20.41,-3.59,-8.32
8e-05,0.51,-0.31,0.83,22.34,-11.42,-5.31
8.333333333333334e-05,0.49,-0.31,0.81,24.64,-20.63,-2.31
8.666666666666668e-05,0.47,-0.32,0.85,24.23,-31.77,-0.06
9.000000000000002e-05,0.45,-0.31,0.84,22.78,-41.6,1.1
9.333333333333336e-05,0.49,-0.31,0.82,23.13,-37.05,2.76
9.66666666666667e-05,0.52,-0.29,0.82,18.72,-31.31,1.47
0.00010000000000000003,0.53,-0.27,0.78,26.82,-27.85,2.02
0.00010333333333333337,0.56,-0.27,0.79,29.15,-21.92,3.47
0.00010666666666666671,0.57,-0.25,0.86,24.84,-8.61,3.25
0.00011000000000000004,0.59,-0.23,0.89,16.67,11.07,2.23
0.00011333333333333338,0.54,-0.23,0.91,6.66,21.68,-2.6
0.00011666666666666672,0.51,-0.24,0.87,7.74,22.49,-2.53
0.00012000000000000006,0.46,-0.24,0.9,8.12,15.86,-3.69
0.0001233333333333334,0.43,-0.24,0.9,6.7,10.73,-7.31
0.00012666666666666672,0.43,-0.25,0.88,7.66,12.66,-10.61
0.00013000000000000004,0.43,-0.27,0.86,7.44,11.79,-13.62
0.00013333333333333337,0.42,-0.28,0.81,11.88,10.17,-16.41
0.0001366666666666667,0.43,-0.27,0.82,15.28,6.84,-17.97
0.00014000000000000001,0.46,-0.26,0.81,18.69,4.02,-17.82
0.00014333333333333334,0.47,-0.25,0.84,19.74,3.42,-17.01
0.00014666666666666666,0.45,-0.24,0.88,16.06,-1.68,-17.62
0.00015,0.46,-0.23,0.83,17.45,1.89,-17.88
0.0001533333333333333,0.46,-0.23,0.85,15.66,4.26,-20.0
0.00015666666666666663,0.44,-0.22,0.84,15.54,3.57,-21.05
0.00015999999999999996,0.46,-0.22,0.8,18.75,7.69,-22.34
0.00016333333333333328,0.44,-0.23,0.82,19.04,8.37,-24.03
0.0001666666666666666,0.47,-0.22,0.8,20.55,9.48,-24.37
0.00016999999999999993,0.46,-0.2,0.81,23.21,7.21,-25.28
0.00017333333333333325,0.49,-0.18,0.83,25.88,4.78,-24.93
0.00017666666666666658,0.5,-0.15,0.88,24.52,5.89,-23.3
0.0001799999999999999,0.5,-0.14,0.91,22.5,2.78,-22.08
0.00018333333333333323,0.5,-0.14,0.88,20.98,4.63,-22.23
0.00018666666666666655,0.51,-0.13,0.88,22.21,7.34,-22.82
0.00018999999999999987,0.49,-0.13,0.88,21.97,9.94,-23.89
0.0001933333333333332,0.47,-0.12,0.91,18.27,9.51,-25.79
0.00019666666666666652,0.49,-0.11,0.88,17.45,12.84,-27.31
0.00019999999999999985,0.51,-0.1,0.87,19.07,15.33,-27.88
0.00020333333333333317,0.54,-0.1,0.91,18.34,11.95,-24.96
0.0002066666666666665,0.52,-0.07,0.88,23.39,4.41,-21.24
0.00020999999999999982,0.52,-0.11,0.91,22.56,0.95,-18.53
0.00021333333333333314,0.52,-0.08,0.89,23.19,2.4,-17.22
0.00021666666666666647,0.48,-0.08,0.87,23.42,4.0,-18.53
0.0002199999999999998,0.49,-0.06,0.88,23.83,3.37,-21.42
0.00022333333333333311,0.55,-0.01,0.87,24.85,8.55,-19.73
0.00022666666666666644,0.55,-0.03,0.87,27.59,11.15,-16.98
0.00022999999999999976,0.48,-0.06,0.93,25.63,4.98,-15.6
0.0002333333333333331,0.49,-0.03,0.93,23.31,1.5,-14.21
0.0002366666666666664,0.54,0.02,0.85,26.67,3.76,-13.07
0.00023999999999999974,0.47,-0.04,0.86,28.26,2.93,-13.22
0.00024333333333333306,0.44,-0.07,0.88,27.68,-1.08,-13.47
0.0002466666666666664,0.44,-0.04,0.84,31.39,-1.16,-15.59
0.00024999999999999973,0.45,-0.03,0.82,35.73,0.35,-17.34
0.00025333333333333306,0.46,-0.01,0.87,36.02,-1.07,-18.4
0.0002566666666666664,0.48,0.02,0.91,35.02,-1.18,-18.46
0.0002599999999999997,0.51,0.04,0.94,31.51,-1.05,-17.94
0.00026333333333333303,0.5,0.05,0.94,29.1,-2.79,-15.68
0.00026666666666666635,0.48,0.06,0.94,25.54,-5.68,-16.98
0.0002699999999999997,0.5,0.06,0.86,28.23,-0.44,-18.82
0.000273333333333333,0.52,0.09,0.88,30.89,1.51,-20.17
0.0002766666666666663,0.55,0.11,0.88,34.38,6.32,-17.24
0.00027999999999999965,0.54,0.11,0.95,35.82,3.97,-13.71
0.000283333333333333,0.49,0.12,1.02,30.78,-0.2,-12.14
0.0002866666666666663,0.46,0.12,1.06,21.19,-2.75,-13.65
0.0002899999999999996,0.43,0.11,1.01,12.44,0.4,-19.47
0.00029333333333333295,0.43,0.11,0.93,12.66,13.27,-22.47
0.00029666666666666627,0.44,0.12,0.91,12.75,12.02,-25.83
0.0002999999999999996,0.46,0.12,0.92,14.78,14.4,-23.76
0.0003033333333333329,0.47,0.13,0.95,12.81,9.77,-20.78
0.00030666666666666624,0.46,0.14,0.99,9.5,7.53,-19.83
0.00030999999999999957,0.47,0.17,0.97,5.11,6.4,-20.63
0.0003133333333333329,0.48,0.14,0.9,3.66,11.1,-21.21
0.0003166666666666662,0.45,0.16,0.93,3.05,7.92,-20.55
0.00031999999999999954,0.48,0.16,0.95,0.61,10.95,-21.22
0.00032333333333333286,0.49,0.17,0.95,-1.21,14.24,-20.24
0.0003266666666666662,0.5,0.17,0.99,-7.47,12.55,-16.49
0.0003299999999999995,0.48,0.18,0.99,-12.49,5.89,-15.27
0.00033333333333333283,0.51,0.17,0.95,-15.83,7.45,-15.21
0.00033666666666666616,0.52,0.16,0.87,-10.98,13.31,-13.63
0.0003399999999999995,0.51,0.12,0.85,-10.98,13.62,-11.79
0.0003433333333333328,0.48,0.12,0.89,-10.96,12.17,-10.84
0.00034666666666666613,0.44,0.13,0.94,-14.6,5.98,-9.76
0.00034999999999999945,0.43,0.13,0.95,-17.66,0.2,-11.05
0.0003533333333333328,0.48,0.15,0.89,-20.29,1.53,-14.12
0.0003566666666666661,0.54,0.14,0.87,-21.54,13.53,-15.85
0.0003599999999999994,0.51,0.1,0.88,-16.93,14.61,-7.15
0.00036333333333333275,0.47,0.12,0.98,-22.08,6.5,-4.31
0.0003666666666666661,0.4,0.09,1.02,-29.89,-5.59,-7.37
0.0003699999999999994,0.4,0.08,1.07,-46.2,-11.53,-14.95
0.0003733333333333327,0.4,0.12,1.14,-63.5,-22.5,-22.78
0.00037666666666666605,0.4,0.12,1.29,-95.37,-22.46,-34.35
0.00037999999999999937,0.64,0.16,1.17,-128.73,5.65,-25.05
0.0003833333333333327,0.68,0.16,0.97,-132.02,28.82,-12.9
0.000386666666666666,0.54,0.1,0.83,-115.51,37.27,-5.24
0.00038999999999999934,0.47,0.03,0.78,-90.87,37.56,-1.31
0.00039333333333333267,0.44,0.01,0.88,-77.66,30.58,0.89
0.000396666666666666,0.46,-0.03,0.92,-65.91,32.21,2.67
0.0003999999999999993,0.4,-0.05,0.9,-55.05,28.06,2.7
0.00040333333333333264,0.36,-0.08,0.95,-49.5,18.9,3.28
0.00040666666666666596,0.38,-0.17,0.98,-45.71,7.07,5.21
0.0004099999999999993,0.35,-0.11,0.89,-39.11,0.21,4.49
0.0004133333333333326,0.34,-0.11,0.8,-25.92,-3.85,4.6
0.00041666666666666593,0.36,-0.12,0.77,-13.82,0.06,2.58
0.00041999999999999926,0.41,-0.13,0.77,-2.96,5.57,4.08
0.0004233333333333326,0.38,-0.13,0.83,2.85,2.72,5.01
0.0004266666666666659,0.37,-0.13,0.81,8.02,4.52,4.67
0.00042999999999999923,0.36,-0.13,0.86,9.34,4.63,3.92
0.00043333333333333255,0.32,-0.12,0.95,8.96,-5.05,3.04
0.0004366666666666659,0.33,-0.11,0.91,9.34,-5.5,1.86
0.0004399999999999992,0.35,-0.11,0.89,7.85,0.17,0.47
0.0004433333333333325,0.41,-0.11,0.88,7.28,9.86,-0.2
0.00044666666666666585,0.4,-0.1,0.86,9.21,16.35,0.24
0.0004499999999999992,0.37,-0.11,0.93,9.88,12.89,0.38
0.0004533333333333325,0.34,-0.11,0.98,9.97,4.15,0.2
0.0004566666666666658,0.36,-0.1,0.97,8.35,5.34,-1.48
0.00045999999999999915,0.37,-0.1,0.98,6.6,3.24,-1.92
0.00046333333333333247,0.38,-0.1,1.01,3.37,0.78,-1.59
0.0004666666666666658,0.4,-0.09,0.96,5.05,3.45,0.37
0.0004699999999999991,0.41,-0.09,0.96,5.39,10.15,0.43
0.00047333333333333244,0.34,-0.08,1.04,4.96,11.51,1.3
0.00047666666666666577,0.38,-0.09,1.0,3.97,10.37,0.93
0.0004799999999999991,0.38,-0.09,0.98,4.38,9.44,2.47
0.0004833333333333324,0.36,-0.1,0.97,4.98,4.49,3.21
0.00048666666666666574,0.35,-0.1,0.98,4.9,0.24,3.21
0.0004899999999999991,0.34,-0.1,1.0,2.27,1.08,2.87
0.0004933333333333325,0.35,-0.09,0.99,0.34,5.27,1.3
0.0004966666666666659,0.37,-0.1,0.97,0.12,10.32,1.01
0.0004999999999999993,0.32,-0.09,0.96,0.89,7.31,1.01
0.0005033333333333326,0.32,-0.11,0.94,3.95,5.28,0.08
0.000506666666666666,0.32,-0.1,0.93,7.97,1.6,-0.47
0.0005099999999999994,0.32,-0.09,0.95,8.03,-0.75,-1.22
0.0005133333333333328,0.34,-0.09,1.0,5.33,-1.69,-1.19
0.0005166666666666661,0.35,-0.09,0.96,4.98,3.56,-1.3
0.0005199999999999995,0.35,-0.08,0.94,5.8,7.07,-1.91
0.0005233333333333329,0.33,-0.09,0.97,6.05,5.94,-2.21
0.0005266666666666663,0.36,-0.08,0.95,5.37,6.81,-1.73
0.0005299999999999997,0.35,-0.09,0.96,5.8,4.96,-1.07
0.000533333333333333,0.33,-0.08,0.94,8.31,2.14,-0.61
0.0005366666666666664,0.34,-0.08,0.94,9.77,2.31,-1.15
0.0005399999999999998,0.32,-0.09,0.95,10.49,0.72,-1.63
0.0005433333333333332,0.34,-0.08,0.96,10.96,1.85,-2.17
0.0005466666666666665,0.34,-0.07,0.96,11.53,2.5,-2.95
0.0005499999999999999,0.34,-0.06,0.99,9.05,1.47,-2.84
0.0005533333333333333,0.34,-0.06,0.99,9.98,1.4,-1.89
0.0005566666666666667,0.34,-0.06,0.99,11.11,1.85,-1.66
0.0005600000000000001,0.33,-0.06,1.05,5.13,3.8,-3.54
0.0005633333333333334,0.34,-0.05,1.04,1.68,4.31,-4.02
0.0005666666666666668,0.36,-0.04,1.01,2.03,4.08,-2.02
0.0005700000000000002,0.35,-0.05,0.98,5.18,3.04,-1.53
0.0005733333333333336,0.33,-0.05,0.99,2.2,2.05,-2.15
0.000576666666666667,0.36,-0.05,0.98,1.62,2.2,-1.4
0.0005800000000000003,0.35,-0.05,0.98,2.84,2.61,-0.34
0.0005833333333333337,0.33,-0.05,1.02,2.17,0.6,-0.2
0.0005866666666666671,0.33,-0.04,1.0,-0.4,4.0,-1.45
0.0005900000000000005,0.33,-0.05,1.01,-3.94,4.79,-3.33
0.0005933333333333338,0.35,-0.05,0.99,-2.61,-1.18,-1.91
0.0005966666666666672,0.34,-0.06,0.98,-0.96,-7.13,0.29
0.0006000000000000006,0.35,-0.05,0.99,-3.82,-4.98,0.53
0.000603333333333334,0.35,-0.05,0.99,-6.92,2.98,-1.57
0.0006066666666666674,0.36,-0.05,0.97,-9.82,13.24,-2.29
0.0006100000000000007,0.36,-0.05,0.95,-6.55,9.37,-0.96
0.0006133333333333341,0.32,-0.07,0.91,-0.43,1.92,0.99
0.0006166666666666675,0.33,-0.06,0.91,2.96,1.5,0.95
0.0006200000000000009,0.34,-0.06,0.93,2.95,8.18,0.14
0.0006233333333333342,0.34,-0.05,0.95,1.36,9.5,-0.6
0.0006266666666666676,0.33,-0.05,0.96,0.9,6.06,-0.61
0.000630000000000001,0.32,-0.06,0.98,-1.04,0.79,0.09
0.0006333333333333344,0.35,-0.05,0.95,0.44,-0.18,1.22
0.0006366666666666678,0.35,-0.06,0.94,0.95,-0.9,1.48
0.0006400000000000011,0.37,-0.05,0.91,1.36,4.35,2.06
0.0006433333333333345,0.36,-0.04,0.94,2.08,6.85,2.17
0.0006466666666666679,0.35,-0.04,0.96,0.55,6.66,2.18
0.0006500000000000013,0.36,-0.05,0.95,2.14,5.07,2.64
0.0006533333333333346,0.32,-0.05,0.97,3.42,-4.79,4.29
0.000656666666666668,0.35,-0.05,0.95,3.22,-5.68,5.22
0.0006600000000000014,0.38,-0.05,0.92,3.98,1.82,6.09
0.0006633333333333348,0.38,-0.04,0.92,4.63,10.21,6.56
0.0006666666666666682,0.33,-0.05,0.98,2.05,10.23,6.6
0.0006700000000000015,0.34,-0.05,0.94,4.12,9.88,6.96
0.0006733333333333349,0.32,-0.05,0.93,5.76,5.91,6.0
0.0006766666666666683,0.29,-0.06,0.97,5.63,-0.73,5.65
0.0006800000000000017,0.32,-0.04,0.97,4.21,-2.14,5.76
0.000683333333333335,0.35,-0.04,0.96,1.76,3.56,5.21
0.0006866666666666684,0.36,-0.04,0.93,1.04,7.48,5.11
0.0006900000000000018,0.37,-0.03,0.93,2.87,7.98,7.94
0.0006933333333333352,0.35,-0.03,0.94,3.59,5.65,9.11
0.0006966666666666686,0.35,-0.03,0.91,5.92,7.36,9.79
0.0007000000000000019,0.34,-0.04,0.94,6.23,10.34,9.85
0.0007033333333333353,0.34,-0.04,0.96,5.47,11.71,9.98
0.0007066666666666687,0.31,-0.04,0.95,8.06,9.92,9.82
0.0007100000000000021,0.29,-0.05,0.97,11.05,5.65,9.6
0.0007133333333333355,0.3,-0.06,0.97,12.98,6.23,10.26
0.0007166666666666688,0.32,-0.06,1.02,11.24,10.06,10.89
0.0007200000000000022,0.27,-0.05,1.07,7.88,8.37,10.41
0.0007233333333333356,0.26,-0.06,1.07,4.15,9.18,8.72
0.000726666666666669,0.26,-0.05,1.03,3.19,11.6,7.25
0.0007300000000000023,0.25,-0.06,1.02,2.75,9.86,6.64
0.0007333333333333357,0.26,-0.06,1.03,2.75,9.66,7.36
0.0007366666666666691,0.25,-0.05,1.03,3.62,7.66,6.58
0.0007400000000000025,0.23,-0.05,1.01,3.19,5.79,4.26
0.0007433333333333359,0.25,-0.05,1.03,3.16,5.05,4.72
0.0007466666666666692,0.25,-0.04,1.01,2.84,0.84,4.6
0.0007500000000000026,0.25,-0.04,1.0,2.12,2.27,4.09
0.000753333333333336,0.26,-0.04,0.99,1.24,2.98,4.26
0.0007566666666666694,0.27,-0.04,0.96,0.52,6.32,4.05
0.0007600000000000028,0.24,-0.04,0.96,1.47,5.24,3.63
0.0007633333333333361,0.25,-0.04,0.95,3.63,3.16,3.42
0.0007666666666666695,0.25,-0.04,0.97,5.13,2.99,3.34
0.0007700000000000029,0.25,-0.03,0.96,7.66,2.0,3.74
0.0007733333333333363,0.24,-0.04,1.0,6.11,1.1,1.94
0.0007766666666666696,0.24,-0.03,0.99,4.81,1.88,1.15
0.000780000000000003,0.25,-0.03,0.98,5.16,2.72,0.52
0.0007833333333333364,0.26,-0.03,0.99,3.95,1.56,0.08
0.0007866666666666698,0.27,-0.03,0.96,5.05,-1.08,0.55
0.0007900000000000032,0.29,-0.03,0.96,5.53,1.76,0.4
0.0007933333333333365,0.27,-0.03,0.97,7.68,-0.95,0.84
0.0007966666666666699,0.27,-0.03,0.99,6.76,-1.54,0.79
0.0008000000000000033,0.28,-0.02,0.97,6.64,-0.14,-0.46
0.0008033333333333367,0.3,-0.02,0.94,7.05,0.96,-0.17
0.00080666666666667,0.29,-0.02,0.95,8.35,0.7,0.46
0.0008100000000000034,0.3,-0.01,0.96,7.94,0.66,0.55
0.0008133333333333368,0.32,0.0,0.97,7.45,2.38,0.43
0.0008166666666666702,0.34,0.01,0.96,8.02,2.43,1.97
0.0008200000000000036,0.34,0.01,0.98,7.15,0.64,4.95
0.0008233333333333369,0.34,0.01,0.99,7.27,3.25,7.28
0.0008266666666666703,0.32,0.01,1.0,5.16,6.79,8.11
0.0008300000000000037,0.29,-0.01,0.99,3.66,9.04,7.74
0.0008333333333333371,0.25,-0.01,1.01,3.51,2.08,6.98
0.0008366666666666705,0.24,-0.01,1.02,3.44,-0.79,6.4
0.0008400000000000038,0.26,-0.01,1.02,2.63,1.19,5.51
0.0008433333333333372,0.25,-0.02,1.04,-0.44,3.92,3.57
0.0008466666666666706,0.22,-0.02,1.03,-1.07,2.08,3.11
0.000850000000000004,0.21,-0.03,1.03,-2.58,-1.22,2.49
0.0008533333333333373,0.24,-0.03,0.99,-1.56,-0.41,1.31
0.0008566666666666707,0.22,-0.03,0.98,0.08,-3.56,0.34
0.0008600000000000041,0.24,-0.03,0.94,3.63,-2.89,0.18
0.0008633333333333375,0.25,-0.02,0.89,7.86,-0.73,-0.44
0.0008666666666666709,0.21,-0.02,0.87,14.02,-1.62,-1.57
0.0008700000000000042,0.22,-0.02,0.89,17.05,-3.36,-3.01
0.0008733333333333376,0.24,-0.01,0.91,16.35,5.71,-3.74
0.000876666666666671,0.22,-0.0,0.98,14.64,8.7,-4.08
0.0008800000000000044,0.2,0.0,0.97,13.19,5.71,-2.93
0.0008833333333333377,0.22,0.0,0.92,9.57,11.01,-3.21
0.0008866666666666711,0.26,0.01,0.96,12.89,17.01,-3.45
0.0008900000000000045,0.16,0.02,1.0,9.45,11.57,-4.81
0.0008933333333333379,0.23,-0.0,0.94,9.04,14.47,-8.99
0.0008966666666666713,0.22,0.02,0.97,15.51,7.97,-7.94
0.0009000000000000046,0.21,0.02,1.0,18.15,0.5,-7.16
0.000903333333333338,0.26,0.03,1.05,15.59,3.48,-5.85
0.0009066666666666714,0.26,0.04,1.09,10.84,6.81,-6.47
0.0009100000000000048,0.26,-0.03,0.97,9.45,11.08,-8.29
0.0009133333333333382,0.23,0.04,1.03,11.76,9.13,-10.49
0.0009166666666666715,0.25,0.05,1.07,11.27,2.61,-8.31
0.0009200000000000049,0.27,0.06,1.04,11.31,0.81,-7.24
0.0009233333333333383,0.28,0.06,1.02,10.72,3.08,-6.6
0.0009266666666666717,0.28,0.06,1.03,9.42,3.16,-5.51
0.000930000000000005,0.27,0.06,1.04,9.4,3.08,-4.61
0.0009333333333333384,0.27,0.06,1.0,9.37,5.97,-4.34
0.0009366666666666718,0.25,0.06,1.04,6.73,6.2,-4.87
0.0009400000000000052,0.25,0.07,1.02,7.07,4.99,-4.66
0.0009433333333333386,0.25,0.06,0.99,9.57,0.84,-3.08
0.0009466666666666719,0.25,0.07,1.01,9.21,-2.35,-2.15
0.0009500000000000053,0.26,0.07,0.99,8.0,3.13,-1.98
0.0009533333333333387,0.24,0.07,0.99,4.76,7.82,-3.59
0.0009566666666666721,0.24,0.08,1.01,3.74,7.59,-4.02
0.0009600000000000054,0.23,0.07,0.98,5.71,3.89,-2.64
0.0009633333333333388,0.24,0.08,0.96,6.96,2.75,-1.44
0.0009666666666666722,0.23,0.08,0.98,6.99,2.76,-0.61
0.0009700000000000056,0.23,0.08,0.97,6.81,3.95,-0.98
0.000973333333333339,0.23,0.09,0.99,3.98,11.24,-2.31
0.0009766666666666723,0.25,0.08,0.98,3.5,17.51,-3.01
0.0009800000000000056,0.21,0.08,0.98,5.18,14.34,-2.35
