time,accl_x,accl_y,accl_z,gyro_x,gyro_y,gyro_z
0.0,0.26,-0.41,0.87,7.07,3.22,-9.25
3.3333333333333333e-06,0.24,-0.41,0.88,4.29,-3.69,-12.41
6.666666666666667e-06,0.29,-0.4,0.8,4.2,0.61,-14.38
9.999999999999999e-06,0.3,-0.42,0.72,8.82,7.04,-16.23
1.3333333333333333e-05,0.28,-0.41,0.76,16.2,5.15,-15.79
1.6666666666666667e-05,0.29,-0.4,0.79,11.91,5.27,-16.58
2e-05,0.31,-0.4,0.74,13.56,10.35,-15.07
2.3333333333333336e-05,0.29,-0.4,0.72,22.14,7.89,-14.35
2.666666666666667e-05,0.26,-0.41,0.76,27.65,-3.36,-15.74
3.0000000000000004e-05,0.24,-0.39,0.82,28.11,-10.67,-22.11
3.3333333333333335e-05,0.27,-0.35,0.8,29.88,-5.16,-29.56
3.6666666666666666e-05,0.31,-0.31,0.85,31.83,-5.45,-33.66
3.9999999999999996e-05,0.37,-0.24,0.94,32.76,-13.11,-32.14
4.333333333333333e-05,0.47,-0.18,1.0,29.22,-10.41,-25.47
4.666666666666666e-05,0.46,-0.14,1.08,24.63,-8.5,-19.98
4.999999999999999e-05,0.44,-0.13,1.1,18.49,-7.62,-17.08
5.333333333333332e-05,0.43,-0.14,1.12,13.05,-3.56,-15.79
5.666666666666665e-05,0.41,-0.14,1.12,7.77,-0.35,-15.1
5.999999999999998e-05,0.36,-0.14,1.11,6.26,-1.76,-16.85
6.333333333333332e-05,0.38,-0.14,1.1,3.66,-1.6,-16.34
6.666666666666666e-05,0.37,-0.14,1.11,-0.66,-4.52,-15.54
7e-05,0.37,-0.15,1.09,-5.15,-2.09,-16.46
7.333333333333333e-05,0.39,-0.13,1.06,-7.08,-3.44,-16.32
7.666666666666667e-05,0.39,-0.14,1.05,-9.5,-7.86,-16.18
8e-05,0.41,-0.13,1.03,-12.34,-7.47,-15.45
8.333333333333334e-05,0.5,-0.15,0.97,-14.89,-1.86,-12.38
8.666666666666668e-05,0.49,-0.16,0.94,-14.75,0.32,-10.41
9.000000000000002e-05,0.46,-0.19,0.92,-14.82,-1.69,-9.92
9.333333333333336e-05,0.47,-0.2,0.91,-15.56,-1.74,-9.31
9.66666666666667e-05,0.48,-0.2,0.89,-15.74,-1.73,-5.74
0.00010000000000000003,0.47,-0.2,0.87,-11.76,-6.03,-1.73
0.00010333333333333337,0.45,-0.23,0.89,-9.05,-10.95,1.08
0.00010666666666666671,0.44,-0.22,0.91,-9.62,-11.85,2.84
0.00011000000000000004,0.46,-0.24,0.88,-8.17,-5.63,3.01
0.00011333333333333338,0.43,-0.25,0.88,-7.05,-5.85,2.98
0.00011666666666666672,0.42,-0.25,0.9,-6.93,-5.76,2.47
0.00012000000000000006,0.44,-0.27,0.9,-6.95,-3.04,2.05
0.0001233333333333334,0.39,-0.28,0.9,-8.02,-3.56,0.72
0.00012666666666666672,0.38,-0.28,0.91,-8.29,-8.31,0.47
0.00013000000000000004,0.39,-0.28,0.89,-7.05,-15.01,0.81
0.00013333333333333337,0.4,-0.28,0.87,-4.95,-17.5,0.89
0.0001366666666666667,0.41,-0.27,0.85,-4.66,-14.29,-0.92
0.00014000000000000001,0.4,-0.25,0.84,-3.42,-10.18,-3.16
0.00014333333333333334,0.41,-0.26,0.85,-3.3,-7.53,-4.72
0.00014666666666666666,0.45,-0.25,0.84,-1.45,-3.68,-4.11
0.00015,0.43,-0.26,0.84,0.2,-2.29,-5.82
0.0001533333333333333,0.42,-0.27,0.87,1.86,-4.12,-6.96
0.00015666666666666663,0.42,-0.27,0.88,4.37,-8.46,-6.92
0.00015999999999999996,0.43,-0.26,0.91,5.74,-11.31,-7.01
0.00016333333333333328,0.47,-0.25,0.94,4.7,-11.07,-4.03
0.0001666666666666666,0.46,-0.23,0.96,2.34,-12.23,-1.53
0.00016999999999999993,0.46,-0.23,0.97,2.17,-10.84,0.87
0.00017333333333333325,0.44,-0.21,0.99,-0.7,-8.06,1.33
0.00017666666666666658,0.41,-0.22,1.02,-6.32,-4.72,-0.84
0.0001799999999999999,0.38,-0.24,0.99,-11.73,-2.95,-4.0
0.00018333333333333323,0.41,-0.25,0.91,-11.07,-0.2,-4.14
0.00018666666666666655,0.38,-0.26,0.9,-8.41,-4.99,-3.33
0.00018999999999999987,0.37,-0.26,0.91,-8.32,-11.91,-3.37
0.0001933333333333332,0.35,-0.27,0.9,-10.18,-13.47,-4.75
0.00019666666666666652,0.39,-0.26,0.89,-13.19,-8.75,-7.22
0.00019999999999999985,0.38,-0.26,0.85,-15.27,-5.76,-9.71
0.00020333333333333317,0.42,-0.28,0.82,-12.34,-4.0,-10.64
0.0002066666666666665,0.42,-0.28,0.85,-12.43,-8.41,-12.12
0.00020999999999999982,0.46,-0.29,0.85,-12.63,-10.26,-11.07
0.00021333333333333314,0.51,-0.29,0.81,-10.55,-7.95,-8.32
0.00021666666666666647,0.51,-0.3,0.78,-6.58,-9.28,-5.74
0.0002199999999999998,0.48,-0.32,0.79,-3.39,-13.13,-5.18
0.00022333333333333311,0.52,-0.32,0.78,-1.66,-8.76,-4.53
0.00022666666666666644,0.53,-0.32,0.79,-0.78,-5.3,-3.83
0.00022999999999999976,0.51,-0.33,0.79,0.49,-4.46,-3.94
0.0002333333333333331,0.52,-0.32,0.79,3.24,-2.99,-4.23
0.0002366666666666664,0.51,-0.31,0.82,4.31,-2.09,-3.34
0.00023999999999999974,0.49,-0.31,0.83,4.34,-1.63,-3.82
0.00024333333333333306,0.49,-0.3,0.85,3.69,-0.17,-2.98
0.0002466666666666664,0.5,-0.29,0.86,4.52,-2.98,-1.89
0.00024999999999999973,0.48,-0.28,0.88,4.18,-4.64,-2.41
0.00025333333333333306,0.48,-0.28,0.88,3.76,-3.27,-3.97
0.0002566666666666664,0.49,-0.27,0.88,2.44,-1.27,-4.81
0.0002599999999999997,0.51,-0.26,0.88,2.85,-1.6,-3.79
0.00026333333333333303,0.48,-0.26,0.91,3.53,-4.35,-3.31
0.00026666666666666635,0.49,-0.25,0.91,2.32,-6.2,-3.05
0.0002699999999999997,0.49,-0.24,0.92,0.15,-3.48,-3.13
0.000273333333333333,0.48,-0.23,0.92,-2.23,-0.31,-4.29
0.0002766666666666663,0.49,-0.23,0.92,-3.47,-1.01,-4.96
0.00027999999999999965,0.48,-0.23,0.89,-3.6,-2.82,-4.46
0.000283333333333333,0.5,-0.24,0.86,-4.12,-1.24,-3.04
0.0002866666666666663,0.52,-0.25,0.83,-5.3,1.37,-1.53
0.0002899999999999996,0.52,-0.26,0.8,-3.59,4.67,-0.23
0.00029333333333333295,0.48,-0.28,0.77,-0.05,7.05,-0.72
0.00029666666666666627,0.46,-0.3,0.76,1.51,9.77,-2.43
0.0002999999999999996,0.44,-0.31,0.75,3.83,10.55,-4.67
0.0003033333333333329,0.43,-0.33,0.75,6.5,8.06,-5.42
0.00030666666666666624,0.42,-0.33,0.76,8.29,5.63,-6.2
0.00030999999999999957,0.46,-0.32,0.72,9.54,8.38,-3.79
0.0003133333333333329,0.42,-0.32,0.75,11.19,5.65,-3.36
0.0003166666666666662,0.43,-0.32,0.74,11.42,6.38,-3.02
0.00031999999999999954,0.45,-0.33,0.7,13.13,12.81,-3.07
0.00032333333333333286,0.45,-0.33,0.68,16.9,16.15,-1.5
0.0003266666666666662,0.44,-0.31,0.7,20.06,14.63,4.47
0.0003299999999999995,0.47,-0.3,0.69,21.11,16.96,11.79
0.00033333333333333283,0.41,-0.3,0.7,26.76,17.36,16.5
0.00033666666666666616,0.37,-0.34,0.79,21.53,21.28,12.79
0.0003399999999999995,0.37,-0.36,0.78,12.38,18.85,3.71
0.0003433333333333328,0.32,-0.34,0.74,19.02,28.34,-9.04
0.00034666666666666613,0.34,-0.29,0.74,23.85,21.89,-17.79
0.00034999999999999945,0.42,-0.24,0.84,28.14,16.2,-18.43
0.0003533333333333328,0.49,-0.17,0.92,22.98,18.0,-16.72
0.0003566666666666661,0.5,-0.14,1.01,16.55,11.11,-12.96
0.0003599999999999994,0.49,-0.0,1.22,6.5,8.58,-7.59
0.00036333333333333275,0.57,-0.12,1.04,5.45,14.92,-2.05
0.0003666666666666661,0.49,-0.12,0.99,1.98,19.54,-2.41
0.0003699999999999994,0.43,-0.16,0.96,3.88,20.99,-5.85
0.0003733333333333327,0.42,-0.16,0.96,4.66,23.73,-8.2
0.00037666666666666605,0.4,-0.15,0.98,0.11,22.37,-9.76
0.00037999999999999937,0.38,-0.16,1.03,5.65,13.48,-9.27
0.0003833333333333327,0.37,-0.13,1.08,0.21,8.95,-7.28
0.000386666666666666,0.37,-0.13,1.05,-0.38,10.52,-2.63
0.00038999999999999934,0.34,-0.14,1.03,-1.34,11.07,-4.2
0.00039333333333333267,0.29,-0.15,0.96,4.55,12.5,-9.27
0.000396666666666666,0.32,-0.14,0.95,8.89,19.69,-12.31
0.0003999999999999993,0.29,-0.13,0.98,8.58,19.92,-15.66
0.00040333333333333264,0.28,-0.15,0.96,14.99,14.69,-16.79
0.00040666666666666596,0.34,-0.13,0.96,16.63,12.12,-15.66
0.0004099999999999993,0.37,-0.12,0.95,18.55,6.61,-12.06
0.0004133333333333326,0.38,-0.13,0.95,18.27,0.76,-15.62
0.00041666666666666593,0.36,-0.14,0.93,13.94,2.98,-10.95
0.00041999999999999926,0.4,-0.15,0.89,13.1,11.94,-11.69
0.0004233333333333326,0.38,-0.17,0.9,10.49,12.03,-12.66
0.0004266666666666659,0.38,-0.18,0.85,13.62,11.73,-13.88
0.00042999999999999923,0.42,-0.14,0.9,14.06,10.31,-11.94
0.00043333333333333255,0.42,-0.15,0.97,10.61,6.34,-8.99
0.0004366666666666659,0.45,-0.15,0.87,14.06,11.53,-7.62
0.0004399999999999992,0.41,-0.16,0.87,18.17,11.05,-7.91
0.0004433333333333325,0.4,-0.17,0.91,21.39,7.69,-8.08
0.00044666666666666585,0.41,-0.14,0.92,23.76,8.32,-8.78
0.0004499999999999992,0.39,-0.13,0.97,24.05,2.89,-8.63
0.0004533333333333325,0.43,-0.1,0.94,25.56,4.67,-5.24
0.0004566666666666658,0.43,-0.1,0.97,25.45,7.94,-3.13
0.00045999999999999915,0.4,-0.09,1.0,23.77,9.73,-3.11
0.00046333333333333247,0.36,-0.06,1.04,20.43,8.89,-4.5
0.0004666666666666658,0.34,-0.08,1.05,17.68,8.76,-5.45
0.0004699999999999991,0.37,-0.04,1.04,18.85,6.95,-2.76
0.00047333333333333244,0.34,-0.05,1.04,19.05,2.03,-0.49
0.00047666666666666577,0.34,-0.03,1.01,18.79,3.56,0.52
0.0004799999999999991,0.31,-0.04,1.02,16.89,5.98,-1.27
0.0004833333333333324,0.3,-0.02,1.02,15.11,7.01,-3.07
0.00048666666666666574,0.31,-0.03,1.04,12.5,1.4,-2.6
0.0004899999999999991,0.33,-0.01,0.98,12.6,7.92,-3.8
0.0004933333333333325,0.33,-0.02,0.97,13.27,9.08,-4.12
0.0004966666666666659,0.33,-0.03,1.01,11.63,7.82,-2.7
0.0004999999999999993,0.32,-0.03,1.01,9.18,6.55,-1.94
0.0005033333333333326,0.3,-0.04,0.96,11.57,3.15,-3.8
0.000506666666666666,0.29,-0.04,1.0,11.36,-2.47,-5.39
0.0005099999999999994,0.34,-0.04,0.99,13.37,-2.06,-4.67
0.0005133333333333328,0.34,-0.03,0.99,14.12,0.81,-5.24
0.0005166666666666661,0.32,-0.03,1.04,10.93,-0.05,-6.7
0.0005199999999999995,0.4,-0.01,1.02,9.04,4.11,-4.44
0.0005233333333333329,0.37,-0.03,1.02,7.13,1.89,-2.78
0.0005266666666666663,0.35,-0.03,1.03,5.39,1.04,-2.56
0.0005299999999999997,0.37,-0.03,1.01,4.43,1.51,-1.07
0.000533333333333333,0.35,-0.04,0.99,5.98,-1.15,0.03
0.0005366666666666664,0.34,-0.04,0.98,6.29,-2.17,-0.03
0.0005399999999999998,0.34,-0.03,0.96,6.98,-0.47,-1.07
0.0005433333333333332,0.34,-0.03,0.97,7.65,0.84,-1.68
0.0005466666666666665,0.31,-0.03,0.98,6.7,-1.59,-1.19
0.0005499999999999999,0.34,-0.02,0.95,5.57,1.36,-1.05
0.0005533333333333333,0.34,-0.01,0.92,6.32,4.2,-0.12
0.0005566666666666667,0.31,-0.02,0.93,7.02,1.86,-0.09
0.0005600000000000001,0.31,-0.01,0.96,7.33,-0.02,0.27
0.0005633333333333334,0.31,-0.02,0.96,7.45,-0.17,0.47
0.0005666666666666668,0.29,-0.01,0.92,9.47,-0.12,-1.53
0.0005700000000000002,0.31,-0.02,0.92,10.92,0.56,-2.9
0.0005733333333333336,0.33,0.0,0.93,11.36,2.11,-2.23
0.000576666666666667,0.31,-0.01,0.98,10.06,-3.15,-1.37
0.0005800000000000003,0.32,0.0,0.97,8.96,-5.11,-0.67
0.0005833333333333337,0.32,-0.0,0.95,10.58,-4.14,-1.24
0.0005866666666666671,0.31,-0.01,0.96,10.11,-1.79,-2.99
0.0005900000000000005,0.29,-0.08,0.97,10.78,-1.13,-3.42
0.0005933333333333338,0.34,0.02,0.98,10.44,-1.89,-1.28
0.0005966666666666672,0.36,0.01,0.95,13.94,-0.99,0.46
0.0006000000000000006,0.32,0.01,0.97,13.33,-4.69,0.0
0.000603333333333334,0.32,0.02,1.0,11.1,-4.82,-2.31
0.0006066666666666674,0.32,0.02,0.99,9.57,-4.08,-4.06
0.0006100000000000007,0.35,0.03,0.96,11.13,0.52,-5.15
0.0006133333333333341,0.37,0.05,1.0,11.54,4.67,-5.19
0.0006166666666666675,0.35,0.07,1.04,9.04,3.39,-5.21
0.0006200000000000009,0.32,0.08,1.06,6.4,-1.22,-6.06
0.0006233333333333342,0.35,0.07,1.03,5.69,-6.29,-5.54
0.0006266666666666676,0.38,0.07,1.01,3.48,-7.44,-5.13
0.000630000000000001,0.41,0.06,0.97,2.78,-1.02,-3.98
0.0006333333333333344,0.4,0.06,0.95,1.88,2.05,-3.82
0.0006366666666666678,0.38,0.06,0.97,0.46,2.35,-2.18
0.0006400000000000011,0.37,0.05,0.95,0.14,-0.81,-1.04
0.0006433333333333345,0.36,0.04,0.92,0.27,-2.37,-0.78
0.0006466666666666679,0.36,0.03,0.89,2.43,-4.95,-0.03
0.0006500000000000013,0.37,0.02,0.87,5.25,-3.37,1.18
0.0006533333333333346,0.37,0.02,0.86,6.89,-2.34,2.44
0.000656666666666668,0.33,0.02,0.87,8.38,-4.85,2.56
0.0006600000000000014,0.32,0.02,0.86,11.02,-5.15,1.66
0.0006633333333333348,0.32,0.02,0.87,13.95,-5.98,0.37
0.0006666666666666682,0.32,0.02,0.86,17.1,-5.44,-0.52
0.0006700000000000015,0.37,0.02,0.87,21.59,-6.26,2.64
0.0006733333333333349,0.39,0.06,0.94,23.25,-12.63,10.2
0.0006766666666666683,0.38,0.1,1.03,18.18,-17.85,16.53
0.0006800000000000017,0.36,0.09,1.0,10.14,-7.95,15.53
0.000683333333333335,0.3,0.08,0.95,3.88,3.21,9.19
0.0006866666666666684,0.33,0.06,0.9,0.44,19.74,4.5
0.0006900000000000018,0.26,0.04,0.92,2.34,12.82,-0.14
0.0006933333333333352,0.31,0.05,0.93,7.45,3.56,-0.44
0.0006966666666666686,0.32,0.06,0.96,6.67,2.21,-1.11
0.0007000000000000019,0.34,0.08,1.0,5.16,-0.92,-1.16
0.0007033333333333353,0.34,0.15,1.03,0.9,-9.42,-0.7
0.0007066666666666687,0.34,0.11,0.98,-0.55,-8.89,-4.08
0.0007100000000000021,0.37,0.13,0.94,1.19,-2.2,-5.31
0.0007133333333333355,0.39,0.11,0.97,2.32,-1.21,-5.71
0.0007166666666666688,0.38,0.1,0.97,4.7,-6.82,-6.53
0.0007200000000000022,0.35,0.09,0.98,6.52,-8.03,-8.03
0.0007233333333333356,0.34,0.11,0.99,5.97,-9.69,-10.84
0.000726666666666669,0.36,0.12,1.03,1.1,-12.11,-11.4
0.0007300000000000023,0.37,0.12,1.02,-5.86,-8.29,-11.51
0.0007333333333333357,0.4,0.1,0.99,-7.39,-4.64,-10.75
0.0007366666666666691,0.36,0.12,1.06,-10.29,-6.44,-10.32
0.0007400000000000025,0.43,0.08,0.94,-6.44,1.56,-8.55
0.0007433333333333359,0.4,0.06,0.94,-10.24,-7.92,-7.04
0.0007466666666666692,0.34,0.06,1.04,-14.89,-18.38,-8.41
0.0007500000000000026,0.42,0.1,1.1,-30.6,-10.58,-10.79
0.000753333333333336,0.43,0.08,1.02,-43.95,14.6,-14.81
0.0007566666666666694,0.35,0.04,1.01,-44.96,12.92,-15.27
0.0007600000000000028,0.37,0.03,1.06,-45.68,9.01,-14.35
0.0007633333333333361,0.4,0.03,1.03,-47.31,10.09,-11.56
0.0007666666666666695,0.38,0.03,0.97,-49.15,17.82,-11.86
0.0007700000000000029,0.37,0.02,1.02,-55.8,19.88,-10.96
0.0007733333333333363,0.4,0.01,0.95,-52.18,22.05,-9.21
0.0007766666666666696,0.33,-0.01,0.88,-42.84,19.39,-9.63
0.000780000000000003,0.3,-0.03,0.88,-32.49,17.24,-12.78
0.0007833333333333364,0.31,-0.03,0.85,-22.52,21.77,-17.05
0.0007866666666666698,0.38,-0.01,0.9,-21.95,40.11,-16.49
0.0007900000000000032,0.33,-0.03,0.99,-23.6,31.42,-15.11
0.0007933333333333365,0.34,-0.01,0.93,-18.11,21.91,-10.9
0.0007966666666666699,0.31,-0.03,0.84,-2.75,18.09,-9.39
0.0008000000000000033,0.29,-0.04,0.86,9.62,19.73,-10.24
0.0008033333333333367,0.24,-0.05,0.97,10.61,21.92,-15.04
0.00080666666666667,0.26,-0.03,1.02,8.12,21.39,-16.72
0.0008100000000000034,0.24,-0.03,1.07,4.11,6.61,-16.61
0.0008133333333333368,0.22,-0.04,1.04,3.89,-1.34,-18.49
0.0008166666666666702,0.31,-0.03,0.97,4.03,10.03,-17.98
0.0008200000000000036,0.35,-0.0,1.03,0.93,12.29,-12.81
0.0008233333333333369,0.29,-0.01,1.01,3.76,9.36,-8.84
0.0008266666666666703,0.27,-0.02,0.99,7.89,7.04,-7.39
0.0008300000000000037,0.22,-0.03,1.0,6.96,7.74,-9.74
0.0008333333333333371,0.21,-0.03,1.0,5.01,8.69,-13.62
0.0008366666666666705,0.25,-0.02,0.96,5.48,17.05,-16.78
0.0008400000000000038,0.25,-0.01,1.0,4.95,12.81,-16.24
0.0008433333333333372,0.26,-0.0,1.05,2.76,3.62,-12.84
0.0008466666666666706,0.26,-0.01,1.03,-1.34,1.68,-12.85
0.000850000000000004,0.29,0.01,0.96,-0.56,8.38,-11.92
0.0008533333333333373,0.24,0.0,0.93,3.56,7.25,-12.38
0.0008566666666666707,0.24,-0.01,1.0,2.49,4.29,-13.4
0.0008600000000000041,0.27,0.0,1.02,-2.05,4.84,-12.27
0.0008633333333333375,0.28,-0.03,1.07,-12.79,10.96,-13.71
0.0008666666666666709,0.28,0.01,1.01,-14.35,12.2,-11.92
0.0008700000000000042,0.26,-0.01,0.9,-5.13,17.47,-12.75
0.0008733333333333376,0.31,0.21,0.94,-0.72,14.17,-17.19
0.000876666666666671,0.27,-0.01,1.0,-2.64,8.11,-12.35
0.0008800000000000044,0.25,-0.02,0.95,-1.11,15.82,-13.34
0.0008833333333333377,0.22,-0.02,0.99,-2.05,18.03,-14.79
0.0008866666666666711,0.25,-0.01,0.99,-3.53,14.69,-12.47
0.0008900000000000045,0.28,0.12,0.98,-6.63,14.21,-16.53
0.0008933333333333379,0.2,-0.03,0.93,-8.52,15.21,-17.28
0.0008966666666666713,0.22,-0.04,0.9,-8.67,24.78,-21.95
0.0009000000000000046,0.23,-0.02,0.91,-7.45,23.21,-22.05
0.000903333333333338,0.08,-0.31,0.89,-2.53,20.12,-22.84
0.0009066666666666714,0.21,-0.01,0.84,6.6,19.5,-23.74
0.0009100000000000048,0.23,-0.01,0.84,7.97,29.22,-19.82
0.0009133333333333382,0.19,-0.01,0.91,10.35,36.56,-25.34
0.0009166666666666715,0.2,0.07,1.07,9.69,30.38,-26.31
0.0009200000000000049,0.22,0.04,1.11,7.89,9.31,-17.83
0.0009233333333333383,0.27,0.04,1.09,9.34,-2.12,-8.69
0.0009266666666666717,0.29,0.04,1.07,7.01,3.63,-2.55
0.000930000000000005,0.27,0.06,1.1,4.2,10.23,-0.64
0.0009333333333333384,0.19,0.02,1.13,-1.21,7.56,-0.02
0.0009366666666666718,0.19,0.03,1.11,-3.15,10.14,0.53
0.0009400000000000052,0.18,0.02,1.11,-2.87,6.89,-0.63
0.0009433333333333386,0.19,0.03,1.11,-5.98,2.0,0.31
0.0009466666666666719,0.19,0.01,1.07,-7.97,-0.81,1.19
0.0009500000000000053,0.19,0.04,1.05,-6.12,-0.55,2.12
0.0009533333333333387,0.24,0.05,1.02,-3.05,2.12,6.18
0.0009566666666666721,0.21,0.01,1.03,0.49,-0.27,10.43
0.0009600000000000054,0.16,0.01,1.05,-2.0,-2.15,9.36
0.0009633333333333388,0.14,0.01,0.99,0.56,-5.4,7.34
0.0009666666666666722,0.15,0.0,0.92,6.24,-3.74,4.46
0.0009700000000000056,0.21,0.01,0.93,10.2,-0.79,6.12
0.000973333333333339,0.21,0.01,0.97,10.93,-9.24,9.28
0.0009766666666666723,0.16,0.02,0.99,11.77,-14.26,10.0
0.0009800000000000056,0.2,0.03,0.96,12.37,-10.02,11.01
0.0009833333333333389,0.17,0.01,0.98,9.91,-1.15,7.57
0.0009866666666666721,0.13,-0.0,1.01,7.27,0.41,4.35
0.0009900000000000054,0.18,0.0,0.97,7.25,7.62,2.72
0.0009933333333333387,0.18,0.01,0.99,6.34,13.1,1.73
0.000996666666666672,0.15,0.0,1.0,5.85,10.24,1.22
0.0010000000000000052,0.16,0.01,1.02,5.02,4.79,1.91
0.0010033333333333385,0.17,0.01,0.99,6.92,4.81,1.53
0.0010066666666666718,0.17,0.01,0.98,6.67,8.24,1.36
0.001010000000000005,0.18,0.01,0.98,8.4,11.39,1.1
0.0010133333333333383,0.16,0.02,1.01,8.85,6.05,-0.2
0.0010166666666666716,0.18,0.04,1.01,8.69,4.9,0.35
0.0010200000000000048,0.17,0.04,1.0,8.78,4.99,-0.55
0.0010233333333333381,0.18,0.04,1.02,8.61,4.55,-1.89
0.0010266666666666714,0.18,0.04,1.04,7.57,3.79,-0.21
0.0010300000000000047,0.18,0.04,1.05,6.38,0.47,0.03
0.001033333333333338,0.18,0.04,1.04,4.67,-2.11,0.69
0.0010366666666666712,0.19,0.05,1.0,6.27,-0.76,1.82
0.0010400000000000045,0.15,0.04,1.0,7.66,-2.69,1.54
0.0010433333333333377,0.16,0.04,0.99,8.96,1.5,0.35
0.001046666666666671,0.19,0.05,0.99,9.19,8.73,0.38
0.0010500000000000043,0.17,0.04,1.03,9.79,11.37,1.05
0.0010533333333333375,0.14,0.04,1.03,9.53,11.54,-0.5
0.0010566666666666708,0.16,0.05,1.03,7.73,15.98,-0.87
0.001060000000000004,0.13,0.04,1.0,8.76,16.4,-2.7
0.0010633333333333374,0.11,0.03,0.94,14.09,17.34,-5.73
0.0010666666666666706,0.11,0.04,0.98,15.91,15.85,-7.18
0.0010700000000000039,0.15,0.07,0.98,16.0,15.28,-5.19
0.0010733333333333372,0.13,0.07,1.04,13.07,14.79,-3.95
0.0010766666666666704,0.1,0.06,1.05,8.75,5.18,-2.98
0.0010800000000000037,0.11,0.08,1.03,7.63,2.08,-2.78
0.001083333333333337,0.14,0.08,1.02,5.97,5.6,-2.46
0.0010866666666666702,0.11,0.08,1.03,5.68,5.33,-2.79
0.0010900000000000035,0.12,0.08,1.03,7.39,0.21,-1.37
0.0010933333333333368,0.12,0.08,1.02,8.47,-4.24,-1.73
0.00109666666666667,0.1,0.08,1.04,8.21,-4.81,-3.21
0.0011000000000000033,0.12,0.09,1.04,4.41,-0.61,-5.45
0.0011033333333333366,0.13,0.1,1.03,2.82,5.59,-6.02
0.0011066666666666699,0.15,0.1,1.01,5.04,2.38,-3.86
0.0011100000000000031,0.13,0.09,1.04,6.34,-6.09,-1.88
0.0011133333333333364,0.14,0.1,1.05,4.41,-8.84,-1.18
0.0011166666666666697,0.13,0.1,1.05,2.4,-7.19,-2.53
0.001120000000000003,0.14,0.1,1.02,3.07,-3.69,-2.38
0.0011233333333333362,0.15,0.11,1.01,5.44,-4.47,-1.36
0.0011266666666666695,0.15,0.1,1.01,6.2,-6.37,-0.14
0.0011300000000000027,0.16,0.09,1.0,6.27,-0.99,-0.84
0.001133333333333336,0.14,0.11,1.0,5.5,2.37,-1.62
0.0011366666666666693,0.14,0.1,1.05,3.05,2.4,-1.44
0.0011400000000000026,0.14,0.1,1.01,3.3,1.16,-0.92
0.0011433333333333358,0.13,0.11,1.01,3.65,-1.57,-0.26
0.001146666666666669,0.13,0.1,1.0,4.21,-2.15,-0.56
0.0011500000000000024,0.15,0.11,0.96,6.66,-0.61,-0.31
0.0011533333333333356,0.12,0.1,0.99,6.61,-2.79,-1.05
0.001156666666666669,0.12,0.1,1.0,6.93,-5.77,-0.9
0.0011600000000000022,0.15,0.11,0.98,7.89,-5.39,-1.08
0.0011633333333333354,0.13,0.11,1.0,8.18,-7.8,-0.69
0.0011666666666666687,0.12,0.17,0.99,9.13,-9.92,-1.56
0.001170000000000002,0.15,0.14,1.0,8.82,-8.98,-2.76
0.0011733333333333353,0.18,0.12,0.99,8.35,-3.02,-0.08
0.0011766666666666685,0.14,0.11,1.04,6.46,-6.69,-0.44
0.0011800000000000018,0.13,0.1,1.0,7.95,-7.21,-1.28
0.001183333333333335,0.16,0.13,1.0,7.68,-7.28,-0.38
0.0011866666666666683,0.16,0.13,1.05,6.35,-3.11,-0.21
0.0011900000000000016,0.14,0.14,1.03,4.17,0.46,-2.29
0.0011933333333333349,0.17,0.14,1.02,2.29,5.16,-2.49
0.0011966666666666681,0.17,0.13,1.03,2.02,2.63,-1.05
0.0012000000000000014,0.17,0.13,0.99,5.68,3.53,0.27
0.0012033333333333347,0.14,0.12,0.97,9.95,1.42,0.08
0.001206666666666668,0.13,0.12,1.01,10.02,-5.3,-0.5
0.0012100000000000012,0.13,0.12,1.02,7.39,-4.9,-1.4
0.0012133333333333345,0.15,0.14,0.99,6.58,-0.85,-1.89
0.0012166666666666678,0.15,0.13,0.98,6.85,-0.34,-2.2
0.001220000000000001,0.14,0.13,1.01,5.5,-3.45,-1.48
