time,acce_x,acce_y,acce_z,gyro_x,gyro_y,gyro_z
0.0,0.08,-0.22,0.97,-0.89,2.44,-0.08
3.3333333333333333e-06,0.06,-0.23,0.97,-0.03,-2.27,-0.14
6.666666666666667e-06,0.07,-0.22,0.96,2.26,-4.52,0.87
9.999999999999999e-06,0.07,-0.23,0.94,2.99,-4.46,0.85
1.3333333333333333e-05,0.05,-0.22,0.96,3.08,-4.37,0.21
1.6666666666666667e-05,0.08,-0.23,0.94,4.85,-2.08,0.31
2e-05,0.07,-0.24,0.95,6.78,-2.73,-0.9
2.3333333333333336e-05,0.06,-0.22,0.97,6.31,-0.92,-2.53
2.666666666666667e-05,0.07,-0.21,0.98,3.53,4.44,-2.49
3.0000000000000004e-05,0.06,-0.22,0.96,4.11,7.56,-3.13
3.3333333333333335e-05,0.07,-0.23,0.98,3.04,4.69,-3.68
3.6666666666666666e-05,0.05,-0.2,0.97,4.69,0.14,-2.02
3.9999999999999996e-05,0.05,-0.22,1.01,4.23,-5.6,-3.45
4.333333333333333e-05,0.05,-0.21,0.96,8.47,-4.81,-5.62
4.666666666666666e-05,0.11,-0.2,0.98,7.08,-0.93,-2.14
4.999999999999999e-05,0.1,-0.19,1.0,6.58,3.33,-2.27
5.333333333333332e-05,0.07,-0.19,1.03,2.09,2.4,-4.52
5.666666666666665e-05,0.07,-0.19,1.06,-0.12,1.56,-4.95
5.999999999999998e-05,0.1,-0.19,1.01,-0.08,3.47,-4.66
6.333333333333332e-05,0.12,-0.19,1.02,-0.87,5.94,-3.02
6.666666666666666e-05,0.1,-0.21,1.01,-2.41,6.23,-2.82
7e-05,0.08,-0.2,1.02,-1.5,3.51,-2.29
7.333333333333333e-05,0.09,-0.2,1.01,-0.85,1.71,-1.25
7.666666666666667e-05,0.07,-0.2,1.01,-0.89,1.85,-1.97
8e-05,0.07,-0.2,1.01,-2.72,2.81,-2.55
8.333333333333334e-05,0.09,-0.19,0.99,-2.78,5.01,-1.8
8.666666666666668e-05,0.07,-0.21,0.97,-1.36,2.67,-1.39
9.000000000000002e-05,0.08,-0.21,0.94,2.18,1.83,-0.49
9.333333333333336e-05,0.07,-0.21,0.96,2.76,1.68,0.08
9.66666666666667e-05,0.07,-0.2,0.95,3.66,-1.1,0.15
0.00010000000000000003,0.08,-0.2,0.96,0.2,-3.51,-0.03
0.00010333333333333337,0.05,-0.19,0.94,1.83,-3.95,0.34
0.00010666666666666671,0.08,-0.2,0.92,3.07,-0.67,-0.76
0.00011000000000000004,0.05,-0.2,0.95,3.22,-3.37,-2.17
0.00011333333333333338,0.08,-0.16,0.98,2.5,-4.6,-2.64
0.00011666666666666672,0.11,-0.18,0.91,3.1,2.9,-1.5
0.00012000000000000006,0.08,-0.19,0.93,3.21,2.99,-1.15
0.0001233333333333334,0.08,-0.19,0.95,2.58,1.98,-0.6
0.00012666666666666672,0.1,-0.18,0.96,1.56,6.49,0.99
0.00013000000000000004,0.11,-0.17,0.98,-0.23,10.2,3.25
0.00013333333333333337,0.11,-0.18,0.97,-1.27,10.37,3.98
0.0001366666666666667,0.07,-0.19,0.94,0.61,9.59,4.08
0.00014000000000000001,0.04,-0.2,0.96,0.46,12.47,1.33
0.00014333333333333334,0.05,-0.2,0.93,3.22,15.22,-0.4
0.00014666666666666666,0.03,-0.21,0.95,6.47,10.12,0.26
0.00015,0.02,-0.21,0.98,9.92,2.17,-0.67
0.0001533333333333333,0.04,-0.19,0.95,11.86,-0.32,-0.58
0.00015666666666666663,0.05,-0.19,1.05,9.07,-6.89,-0.38
0.00015999999999999996,0.05,-0.18,0.99,8.85,-8.06,-0.53
0.00016333333333333328,0.07,-0.18,0.98,9.33,-4.79,-1.33
0.0001666666666666666,0.05,-0.18,0.99,9.01,-5.48,-0.72
0.00016999999999999993,0.06,-0.18,0.95,10.73,0.12,-1.1
0.00017333333333333325,0.07,-0.17,1.03,8.2,1.3,-2.03
0.00017666666666666658,0.08,-0.16,1.0,7.08,3.97,-1.42
0.0001799999999999999,0.1,-0.15,1.0,7.11,6.75,0.15
0.00018333333333333323,0.05,-0.16,1.02,5.04,0.37,1.5
0.00018666666666666655,0.07,-0.14,0.98,5.21,2.05,2.38
0.00018999999999999987,0.08,-0.16,0.95,7.21,4.2,1.76
0.0001933333333333332,0.04,-0.17,0.96,8.69,1.88,0.32
0.00019666666666666652,0.04,-0.16,0.95,11.13,2.26,0.09
0.00019999999999999985,0.05,-0.16,0.94,13.48,4.78,-0.96
0.00020333333333333317,0.06,-0.15,0.97,14.52,3.8,-1.31
0.0002066666666666665,0.06,-0.14,0.97,13.65,-0.12,1.39
0.00020999999999999982,0.06,-0.14,0.95,16.2,-2.84,3.05
0.00021333333333333314,0.05,-0.14,0.97,14.55,-5.74,2.17
0.00021666666666666647,0.05,-0.13,0.95,14.63,-6.76,0.03
0.0002199999999999998,0.07,-0.12,0.94,16.15,0.34,0.18
0.00022333333333333311,0.06,-0.11,0.97,14.63,4.12,2.26
0.00022666666666666644,0.05,-0.12,0.96,14.21,6.89,2.61
0.00022999999999999976,0.04,-0.13,0.99,13.98,6.89,1.68
0.0002333333333333331,0.04,-0.13,0.98,14.15,5.16,1.73
0.0002366666666666664,0.05,-0.13,0.99,13.82,2.89,1.15
0.00023999999999999974,0.05,-0.13,0.98,14.09,0.98,0.64
0.00024333333333333306,0.06,-0.13,1.01,13.07,3.48,0.46
0.0002466666666666664,0.05,-0.13,0.99,14.27,6.67,-0.2
0.00024999999999999973,0.06,-0.13,1.01,16.37,7.45,1.02
0.00025333333333333306,0.05,-0.13,1.04,17.56,5.47,2.11
0.0002566666666666664,0.06,-0.12,1.04,18.4,8.35,2.11
0.0002599999999999997,0.03,-0.12,1.11,16.18,7.1,1.05
0.00026333333333333303,0.03,-0.11,1.11,14.81,2.09,0.84
0.00026666666666666635,0.05,-0.11,1.08,15.21,1.15,1.3
0.0002699999999999997,0.03,-0.1,1.09,14.64,-4.98,1.01
0.000273333333333333,0.05,-0.1,1.07,14.92,-6.08,1.19
0.0002766666666666663,0.05,-0.08,1.09,13.19,-6.98,0.81
0.00027999999999999965,0.06,-0.08,1.08,11.92,-7.66,1.48
0.000283333333333333,0.06,-0.09,1.06,12.29,-5.57,0.52
0.0002866666666666663,0.07,-0.09,1.05,12.35,-4.56,0.44
0.0002899999999999996,0.09,-0.08,1.06,13.15,-1.86,1.5
0.00029333333333333295,0.08,-0.06,1.04,11.97,5.57,3.89
0.00029666666666666627,0.04,-0.06,1.07,11.18,6.87,3.4
0.0002999999999999996,0.03,-0.06,1.07,9.51,2.43,2.78
0.0003033333333333329,0.04,-0.06,1.06,9.48,0.21,3.45
0.00030666666666666624,0.04,-0.06,1.04,8.58,-1.53,2.9
0.00030999999999999957,0.05,-0.05,1.04,8.66,-4.89,2.52
0.0003133333333333329,0.05,-0.05,1.01,8.56,-5.59,1.34
0.0003166666666666662,0.05,-0.06,1.0,10.08,-4.29,0.03
0.00031999999999999954,0.06,-0.05,0.98,11.18,0.6,0.08
0.00032333333333333286,0.08,-0.03,1.02,10.72,3.97,2.18
0.0003266666666666662,0.06,-0.03,1.05,8.69,3.24,3.37
0.0003299999999999995,0.03,-0.02,1.05,7.34,4.4,4.27
0.00033333333333333283,0.03,-0.03,1.03,6.81,3.92,4.78
0.00033666666666666616,0.02,-0.04,1.04,7.39,0.82,4.05
0.0003399999999999995,0.01,-0.04,1.02,8.34,0.23,2.69
0.0003433333333333328,0.02,-0.04,1.01,8.58,1.05,1.6
0.00034666666666666613,0.01,-0.03,1.02,8.79,-0.67,2.02
0.00034999999999999945,0.0,-0.02,1.01,10.58,-3.37,2.05
0.0003533333333333328,0.01,-0.02,1.06,8.58,-7.92,1.15
0.0003566666666666661,0.01,-0.01,1.06,5.19,-11.18,-1.83
0.0003599999999999994,0.02,-0.02,1.03,3.77,-8.7,-3.21
0.00036333333333333275,0.03,-0.02,1.01,3.86,-6.21,-2.76
0.0003666666666666661,0.04,-0.01,1.0,5.65,-6.89,-1.08
0.0003699999999999994,0.04,-0.02,1.02,5.65,-8.53,-1.3
0.0003733333333333327,0.02,-0.01,1.04,3.92,-11.83,-1.08
0.00037666666666666605,0.07,-0.0,1.03,1.85,-10.49,-0.47
0.00037999999999999937,0.06,-0.0,1.05,-0.35,-13.89,-0.67
0.0003833333333333327,0.06,-0.03,1.0,0.56,-10.67,-1.56
0.000386666666666666,0.09,-0.02,1.0,1.86,-4.95,-2.21
0.00038999999999999934,0.09,-0.03,1.01,2.08,-3.34,-3.18
0.00039333333333333267,0.09,-0.02,0.99,3.63,0.67,-3.5
0.000396666666666666,0.09,-0.01,1.0,4.26,2.66,-2.06
0.0003999999999999993,0.07,0.0,1.06,1.07,1.05,-1.65
0.00040333333333333264,0.06,0.01,1.09,-2.11,-2.63,0.21
0.00040666666666666596,0.08,0.01,1.06,-3.66,0.72,0.84
0.0004099999999999993,0.08,0.0,1.03,-4.81,2.46,1.62
0.0004133333333333326,0.09,-0.0,1.0,-3.01,4.17,0.6
0.00041666666666666593,0.07,-0.02,0.98,-0.61,5.07,0.31
0.00041999999999999926,0.06,-0.02,0.99,0.81,6.43,-0.4
0.0004233333333333326,0.06,-0.02,1.0,1.59,7.15,-0.72
0.0004266666666666659,0.05,-0.01,1.0,3.47,7.42,0.52
0.00042999999999999923,0.02,-0.01,1.06,2.69,0.61,-0.08
0.00043333333333333255,0.03,0.0,1.03,1.4,-2.2,-0.73
0.0004366666666666659,0.03,0.01,1.04,0.99,-2.73,-1.04
0.0004399999999999992,0.01,-0.01,1.05,0.44,-6.23,-2.6
0.0004433333333333325,0.02,-0.01,1.04,-1.31,-6.69,-3.01
0.00044666666666666585,0.03,0.02,1.06,-4.52,-3.82,-1.73
0.0004499999999999992,0.03,0.02,1.03,-5.82,-1.28,-2.58
0.0004533333333333325,0.02,0.0,1.03,-5.44,-0.95,-5.15
0.0004566666666666658,0.06,-0.0,1.01,-5.92,1.27,-7.33
0.00045999999999999915,0.08,-0.01,1.0,-5.02,5.3,-7.22
0.00046333333333333247,0.06,-0.01,1.02,-3.66,2.5,-6.38
0.0004666666666666658,0.05,-0.02,1.01,-1.88,-2.24,-4.72
0.0004699999999999991,0.04,-0.01,1.02,-0.96,-3.76,-3.39
0.00047333333333333244,0.06,-0.01,1.02,-1.19,0.49,-4.31
0.00047666666666666577,0.05,-0.01,1.03,-2.29,1.02,-4.5
0.0004799999999999991,0.04,-0.02,1.03,-2.5,-1.54,-6.72
0.0004833333333333324,0.04,-0.01,1.0,-0.96,2.2,-5.54
0.00048666666666666574,0.05,-0.01,1.01,-1.85,2.79,-5.8
0.0004899999999999991,0.02,-0.01,1.05,-3.47,-1.4,-7.37
0.0004933333333333325,0.04,-0.0,1.02,-4.64,-1.88,-5.85
0.0004966666666666659,0.04,-0.01,1.03,-5.97,-5.8,-8.14
0.0004999999999999993,0.03,-0.01,1.02,-5.01,-10.75,-10.23
0.0005033333333333326,0.04,0.0,1.02,-7.5,-12.49,-10.03
0.000506666666666666,0.05,-0.0,1.0,-9.89,-17.82,-14.6
0.0005099999999999994,0.09,-0.02,0.94,-6.99,-13.34,-14.75
0.0005133333333333328,0.07,-0.02,0.95,-6.38,-14.98,-15.27
0.0005166666666666661,0.06,-0.01,1.0,-7.91,-23.83,-13.1
0.0005199999999999995,0.13,-0.01,0.93,-7.8,-20.49,-9.79
0.0005233333333333329,0.2,-0.02,0.93,-10.98,-4.67,-11.04
0.0005266666666666663,0.16,-0.03,0.97,-12.06,8.24,-13.51
0.0005299999999999997,0.19,-0.05,0.94,-8.35,15.86,-9.92
0.000533333333333333,0.15,-0.08,0.95,-0.98,10.4,-5.48
0.0005366666666666664,0.15,-0.07,0.95,3.69,7.83,0.38
0.0005399999999999998,0.09,-0.06,1.01,3.65,7.18,0.6
0.0005433333333333332,0.06,-0.07,1.03,4.61,4.2,-2.24
0.0005466666666666665,0.09,-0.06,1.03,6.06,3.04,-1.45
0.0005499999999999999,0.07,-0.07,1.02,7.15,-2.6,-1.25
0.0005533333333333333,0.06,-0.07,1.03,8.37,-7.16,-0.92
0.0005566666666666667,0.07,-0.07,1.01,11.5,-6.56,-1.5
0.0005600000000000001,0.08,-0.05,1.0,14.31,-5.56,-1.16
0.0005633333333333334,0.09,-0.05,1.03,14.55,-7.66,-1.79
0.0005666666666666668,0.07,-0.04,1.06,13.82,-12.78,-2.93
0.0005700000000000002,0.09,-0.04,1.04,14.17,-10.43,-4.21
0.0005733333333333336,0.09,-0.03,1.04,12.99,-7.18,-5.56
0.000576666666666667,0.09,-0.01,1.06,9.62,-5.51,-4.52
0.0005800000000000003,0.11,0.0,1.06,9.5,-5.73,-3.34
0.0005833333333333337,0.11,-0.0,1.05,7.5,-5.94,-4.02
0.0005866666666666671,0.12,-0.01,1.01,8.52,-1.62,-3.94
0.0005900000000000005,0.14,0.0,1.0,9.57,1.34,-2.29
0.0005933333333333338,0.11,-0.0,1.02,10.29,-2.11,-3.34
0.0005966666666666672,0.1,-0.0,1.03,9.77,-1.82,-3.89
0.0006000000000000006,0.1,0.02,1.04,8.75,-3.54,-2.75
0.000603333333333334,0.1,0.02,1.06,7.68,-5.27,-1.62
0.0006066666666666674,0.12,0.02,1.07,5.76,-8.15,0.95
0.0006100000000000007,0.1,0.02,1.08,2.82,-5.74,0.11
0.0006133333333333341,0.1,0.01,1.06,1.05,-0.08,-0.66
0.0006166666666666675,0.09,0.0,1.04,2.43,1.24,-1.47
0.0006200000000000009,0.08,0.0,1.05,2.6,-2.06,-1.15
0.0006233333333333342,0.08,0.01,1.07,1.1,-3.63,-1.25
0.0006266666666666676,0.09,0.01,1.07,-0.58,-0.47,-0.72
0.000630000000000001,0.08,-0.01,1.07,-1.34,-1.77,-0.58
0.0006333333333333344,0.08,-0.01,1.05,0.0,-3.86,-0.18
0.0006366666666666678,0.08,-0.03,1.04,1.47,-0.06,-1.19
0.0006400000000000011,0.07,-0.01,1.08,0.21,-1.22,0.29
0.0006433333333333345,0.07,-0.01,1.08,-1.34,-0.72,0.37
0.0006466666666666679,0.07,-0.01,1.1,-3.97,1.5,-1.57
0.0006500000000000013,0.07,-0.02,1.09,-6.43,2.6,-2.55
0.0006533333333333346,0.07,-0.02,1.07,-7.28,0.21,-2.5
0.000656666666666668,0.07,-0.04,1.04,-5.69,0.87,-2.89
0.0006600000000000014,0.07,-0.03,1.05,-6.58,0.35,-3.73
0.0006633333333333348,0.07,-0.03,1.05,-6.53,-5.28,-5.18
0.0006666666666666682,0.07,-0.02,1.07,-6.76,-8.43,-5.31
0.0006700000000000015,0.08,-0.02,1.05,-9.16,-9.74,-7.01
0.0006733333333333349,0.11,-0.0,1.05,-9.66,-9.27,-8.37
0.0006766666666666683,0.12,-0.01,1.02,-9.69,-10.56,-8.46
0.0006800000000000017,0.12,-0.0,1.01,-7.42,-13.66,-8.08
0.000683333333333335,0.15,-0.0,0.99,-7.22,-12.06,-7.24
0.0006866666666666684,0.15,0.01,0.99,-8.38,-10.12,-7.51
0.0006900000000000018,0.15,0.02,1.0,-10.12,-8.44,-7.51
0.0006933333333333352,0.15,0.01,0.99,-9.97,-10.23,-6.81
0.0006966666666666686,0.15,0.0,0.94,-7.88,-8.52,-5.73
0.0007000000000000019,0.17,-0.01,0.93,-5.11,-4.32,-4.79
0.0007033333333333353,0.16,-0.01,0.93,-2.85,-1.11,-4.49
0.0007066666666666687,0.13,-0.02,0.96,-1.5,-4.47,-4.35
0.0007100000000000021,0.12,0.0,0.99,-0.63,-8.08,-3.66
0.0007133333333333355,0.11,-0.0,1.01,-1.76,-10.27,-4.84
0.0007166666666666688,0.1,-0.01,0.96,-1.28,-10.93,-6.92
0.0007200000000000022,0.11,-0.01,0.96,0.35,-11.97,-9.48
0.0007233333333333356,0.12,-0.0,0.96,0.38,-16.72,-9.21
0.000726666666666669,0.14,-0.01,0.94,3.45,-14.79,-9.74
0.0007300000000000023,0.13,-0.01,0.97,2.55,-13.62,-12.37
0.0007333333333333357,0.14,-0.01,0.97,3.8,-11.25,-14.34
0.0007366666666666691,0.15,0.0,1.0,5.01,-10.69,-14.64
0.0007400000000000025,0.16,0.01,1.03,5.16,-14.53,-12.49
0.0007433333333333359,0.16,0.01,1.02,6.37,-13.98,-12.21
0.0007466666666666692,0.17,0.01,1.04,4.9,-13.98,-13.94
0.0007500000000000026,0.17,0.0,1.04,5.57,-9.95,-15.39
0.000753333333333336,0.18,0.0,1.05,7.65,-7.07,-15.07
0.0007566666666666694,0.18,0.01,1.07,7.83,-11.24,-13.85
0.0007600000000000028,0.17,0.02,1.06,8.63,-11.92,-12.21
0.0007633333333333361,0.13,0.03,1.07,6.35,-10.79,-11.6
0.0007666666666666695,0.1,0.0,1.03,3.53,-11.34,-15.01
0.0007700000000000029,0.16,0.02,0.99,6.92,-8.61,-12.7
0.0007733333333333363,0.12,-0.0,1.0,7.36,-12.21,-13.63
0.0007766666666666696,0.14,0.01,0.98,10.75,-8.34,-14.5
0.000780000000000003,0.16,0.01,1.02,8.56,-6.03,-15.36
0.0007833333333333364,0.14,0.01,1.02,7.71,-4.55,-17.34
0.0007866666666666698,0.15,0.01,1.02,9.56,0.9,-19.34
0.0007900000000000032,0.17,0.02,1.06,8.34,1.74,-19.94
0.0007933333333333365,0.2,0.04,1.09,6.7,1.95,-18.05
0.0007966666666666699,0.19,0.02,1.11,5.4,-0.03,-17.56
0.0008000000000000033,0.19,0.01,1.09,5.28,2.52,-18.05
0.0008033333333333367,0.19,0.01,1.09,4.29,4.85,-18.7
0.00080666666666667,0.18,0.02,1.13,0.02,-0.11,-19.27
0.0008100000000000034,0.2,0.03,1.12,-3.71,-1.92,-19.56
0.0008133333333333368,0.21,0.01,1.08,-5.54,-1.68,-18.52
0.0008166666666666702,0.21,0.01,1.07,-6.34,-4.82,-18.2
0.0008200000000000036,0.2,0.02,1.04,-7.08,-10.69,-17.89
0.0008233333333333369,0.23,0.01,0.99,-5.1,-8.75,-17.07
0.0008266666666666703,0.22,0.01,0.95,-2.73,-9.22,-15.34
0.0008300000000000037,0.24,0.02,0.96,-2.49,-7.11,-15.16
0.0008333333333333371,0.28,0.04,0.99,-6.69,-2.78,-13.77
0.0008366666666666705,0.26,0.04,1.0,-8.72,-3.44,-11.68
0.0008400000000000038,0.24,0.04,1.03,-10.99,-3.1,-9.65
0.0008433333333333372,0.26,0.05,1.01,-11.66,1.54,-7.3
0.0008466666666666706,0.24,0.02,0.99,-12.12,5.25,-5.45
0.000850000000000004,0.23,0.01,0.99,-9.94,7.62,-4.14
0.0008533333333333373,0.21,0.01,1.02,-11.91,9.82,-3.02
0.0008566666666666707,0.19,0.03,1.02,-13.42,15.28,-2.05
0.0008600000000000041,0.16,0.02,1.01,-13.15,17.1,-2.09
0.0008633333333333375,0.14,0.02,1.0,-12.08,10.96,-2.66
0.0008666666666666709,0.1,0.01,1.0,-11.51,1.02,-4.72
0.0008700000000000042,0.11,0.02,1.0,-12.99,-4.29,-5.71
0.0008733333333333376,0.12,0.02,0.97,-13.53,-6.72,-7.85
0.000876666666666671,0.13,0.0,0.91,-9.69,-6.44,-8.02
0.0008800000000000044,0.17,0.02,0.93,-5.25,-8.05,-7.16
0.0008833333333333377,0.17,0.01,0.95,-7.33,-10.23,-6.82
0.0008866666666666711,0.23,0.02,0.86,-6.0,5.15,-2.95
0.0008900000000000045,0.21,0.01,0.87,-1.5,15.6,-3.42
0.0008933333333333379,0.2,-0.0,0.92,0.61,9.42,-6.08
0.0008966666666666713,0.17,-0.0,0.91,6.06,6.37,-4.64
0.0009000000000000046,0.19,0.0,0.91,7.86,9.82,-5.16
0.000903333333333338,0.17,0.01,0.96,7.88,6.38,-5.08
0.0009066666666666714,0.16,0.02,0.96,6.24,-0.64,-5.54
0.0009100000000000048,0.2,0.01,0.89,9.33,2.47,-3.86
0.0009133333333333382,0.21,0.01,0.87,12.32,2.92,-5.02
0.0009166666666666715,0.22,0.01,0.83,19.68,7.08,-4.15
0.0009200000000000049,0.21,0.02,0.86,26.38,7.34,-2.52
0.0009233333333333383,0.22,0.04,0.89,31.47,2.35,-0.23
0.0009266666666666717,0.24,0.05,0.92,36.67,-1.34,6.56
0.000930000000000005,0.17,0.06,1.02,36.02,-9.13,12.85
0.0009333333333333384,0.14,0.07,1.09,29.65,-14.09,7.3
0.0009366666666666718,0.32,0.16,0.96,23.31,18.95,10.12
0.0009400000000000052,0.21,0.11,1.09,21.02,27.18,7.21
0.0009433333333333386,0.12,0.07,1.09,17.69,13.08,2.61
0.0009466666666666719,0.17,0.05,0.99,20.56,16.27,-2.58
0.0009500000000000053,0.14,0.04,1.01,19.56,14.75,-7.24
0.0009533333333333387,0.14,0.05,1.03,20.9,4.4,-8.9
0.0009566666666666721,0.16,0.08,1.07,21.13,-5.82,-6.73
0.0009600000000000054,0.17,0.1,1.11,16.44,-8.41,-6.89
0.0009633333333333388,0.19,0.09,1.08,13.48,-1.04,-8.18
0.0009666666666666722,0.21,0.08,1.05,12.46,5.4,-5.44
0.0009700000000000056,0.2,0.07,1.08,13.31,2.52,-1.47
0.000973333333333339,0.22,0.08,1.03,14.9,3.42,1.95
0.0009766666666666723,0.21,0.08,1.05,12.2,12.47,3.62
0.0009800000000000056,0.18,0.08,1.08,10.35,15.08,7.13
0.0009833333333333389,0.11,0.06,1.13,12.49,15.4,10.27
0.0009866666666666721,-0.03,0.06,1.19,11.33,-1.59,6.43
0.0009900000000000054,-0.11,0.04,1.23,11.66,-12.56,-1.65
0.0009933333333333387,-0.13,0.06,1.24,6.56,-19.04,-10.78
0.000996666666666672,-0.07,0.08,1.21,2.44,-19.1,-19.45
0.0010000000000000052,0.07,0.1,1.13,-3.27,-8.7,-23.05
0.0010033333333333385,0.16,0.12,1.04,-4.17,-3.44,-21.25
0.0010066666666666718,0.26,0.12,0.97,-2.46,2.18,-17.37
0.001010000000000005,0.33,0.13,0.91,0.03,8.47,-10.34
0.0010133333333333383,0.31,0.14,0.91,1.21,9.48,-5.66
0.0010166666666666716,0.33,0.14,0.86,5.68,15.95,-1.15
0.0010200000000000048,0.32,0.16,0.89,8.44,21.94,2.96
0.0010233333333333381,0.24,0.14,0.95,9.28,17.33,4.34
0.0010266666666666714,0.18,0.13,0.99,12.18,9.98,6.06
0.0010300000000000047,0.11,0.14,1.03,14.64,2.43,7.54
0.001033333333333338,0.03,0.12,1.11,13.4,-5.6,4.96
0.0010366666666666712,-0.02,0.11,1.13,8.99,-6.9,-2.12
0.0010400000000000045,-0.03,0.1,1.12,4.84,-5.86,-10.05
0.0010433333333333377,0.01,0.11,1.1,1.63,-4.98,-15.71
0.001046666666666671,0.06,0.11,1.07,0.12,-9.25,-18.63
0.0010500000000000043,0.13,0.13,1.03,0.15,-11.98,-18.27
0.0010533333333333375,0.23,0.12,0.98,1.88,-11.08,-14.4
0.0010566666666666708,0.25,0.12,0.97,1.25,-7.91,-10.93
0.001060000000000004,0.28,0.13,0.94,2.95,3.1,-7.19
0.0010633333333333374,0.27,0.14,0.95,5.1,10.49,-1.86
0.0010666666666666706,0.22,0.14,0.97,5.83,17.51,1.57
0.0010700000000000039,0.15,0.15,1.04,4.12,16.46,3.62
0.0010733333333333372,0.11,0.15,1.04,0.9,16.14,3.07
0.0010766666666666704,0.09,0.16,1.04,0.82,17.48,2.03
0.0010800000000000037,0.12,0.17,1.02,-0.67,20.03,2.93
0.001083333333333337,0.17,0.16,0.95,0.35,20.82,5.05
0.0010866666666666702,0.16,0.16,0.94,3.02,28.23,7.97
0.0010900000000000035,0.14,0.16,0.96,3.68,27.5,9.94
0.0010933333333333368,0.11,0.17,0.99,6.18,19.31,11.97
0.00109666666666667,0.07,0.17,1.02,6.17,12.63,12.27
0.0011000000000000033,0.1,0.16,0.95,8.92,16.21,13.79
0.0011033333333333366,0.14,0.15,0.92,13.02,21.94,16.49
0.0011066666666666699,0.15,0.14,0.93,13.86,29.25,19.82
0.0011100000000000031,0.12,0.15,0.95,12.7,29.8,23.97
0.0011133333333333364,0.1,0.17,0.98,10.79,30.4,26.73
0.0011166666666666697,0.03,0.17,1.06,4.08,27.74,24.63
0.001120000000000003,-0.03,0.17,1.08,-3.33,28.17,19.54
0.0011233333333333362,0.0,0.16,1.01,-0.98,34.76,14.56
0.0011266666666666695,-0.03,0.16,1.05,-2.53,30.82,9.74
0.0011300000000000027,-0.02,0.16,1.03,-6.34,27.37,7.34
0.001133333333333336,0.03,0.14,1.04,-5.98,29.11,4.81
0.0011366666666666693,0.03,0.15,1.01,-5.59,21.71,5.39
0.0011400000000000026,0.04,0.15,1.0,-7.1,16.2,5.56
0.0011433333333333358,0.05,0.14,0.98,-2.38,16.82,7.59
0.001146666666666669,0.04,0.16,0.96,-1.76,19.01,9.76
0.0011500000000000024,0.02,0.15,0.98,-1.42,14.32,10.02
0.0011533333333333356,-0.01,0.14,1.04,-5.07,11.05,8.81
0.001156666666666669,0.01,0.12,0.95,-2.69,19.36,6.29
0.0011600000000000022,-0.0,0.14,0.97,0.6,18.56,5.39
0.0011633333333333354,-0.04,0.13,0.99,4.58,6.58,4.82
0.0011666666666666687,-0.05,0.14,0.99,6.7,1.59,3.25
0.001170000000000002,-0.02,0.15,0.98,8.2,5.48,1.48
0.0011733333333333353,0.0,0.16,0.99,7.16,9.86,-0.29
0.0011766666666666685,0.03,0.18,0.98,9.11,16.66,1.54
0.0011800000000000018,0.04,0.18,1.04,5.94,14.52,3.48
0.001183333333333335,0.03,0.18,0.95,7.48,22.38,5.21
0.0011866666666666683,-0.02,0.17,0.99,8.9,17.65,5.1
0.0011900000000000016,-0.04,0.15,0.93,12.66,18.17,4.78
0.0011933333333333349,-0.02,0.15,0.9,18.14,27.65,4.63
0.0011966666666666681,-0.01,0.18,0.91,19.11,30.84,6.21
0.0012000000000000014,-0.05,0.2,1.02,16.78,25.59,6.61
0.0012033333333333347,-0.03,0.21,1.02,12.41,21.27,8.37
0.001206666666666668,-0.05,0.19,0.95,14.09,29.25,9.18
0.0012100000000000012,-0.1,0.2,0.98,20.41,26.64,8.14
0.0012133333333333345,-0.06,0.21,1.04,13.39,14.49,8.66
0.0012166666666666678,-0.09,0.2,1.02,14.18,10.79,8.76
0.001220000000000001,-0.08,0.21,1.04,6.4,-7.74,7.6
0.0012233333333333343,-0.17,0.21,1.19,-3.4,-34.96,1.56
