time,acce_x,acce_y,acce_z,gyro_x,gyro_y,gyro_z
0.0,0.11,-0.16,0.97,-3.44,5.11,-2.49
3.3333333333333333e-06,0.09,-0.15,0.99,1.48,2.14,-1.65
6.666666666666667e-06,0.06,-0.16,0.99,2.93,-2.05,-1.92
9.999999999999999e-06,0.08,-0.16,0.97,5.36,-4.03,-1.98
1.3333333333333333e-05,0.07,-0.17,0.95,6.08,6.4,-4.52
1.6666666666666667e-05,0.07,-0.16,0.99,6.0,9.28,-4.7
2e-05,0.07,-0.15,1.02,-1.48,3.33,-1.5
2.3333333333333336e-05,0.08,-0.14,1.01,2.61,2.58,-3.71
2.666666666666667e-05,0.08,-0.15,0.98,4.96,-0.95,-2.43
3.0000000000000004e-05,0.05,-0.16,0.95,8.49,-4.18,-2.14
3.3333333333333335e-05,0.12,-0.14,0.93,12.43,7.19,-1.4
3.6666666666666666e-05,0.08,-0.13,0.97,12.46,10.81,-1.39
3.9999999999999996e-05,0.04,-0.13,1.0,13.05,4.34,-0.35
4.333333333333333e-05,0.02,-0.13,1.04,8.87,-1.1,-1.83
4.666666666666666e-05,0.02,-0.13,0.99,7.1,-0.89,-5.22
4.999999999999999e-05,0.06,-0.15,0.96,9.21,1.57,-6.14
5.333333333333332e-05,0.07,-0.14,0.94,12.67,1.98,-6.31
5.666666666666665e-05,0.08,-0.14,0.97,13.31,4.52,-6.9
5.999999999999998e-05,0.07,-0.14,0.99,14.79,3.83,-7.48
6.333333333333332e-05,0.05,-0.12,1.02,15.36,-3.11,-7.68
6.666666666666666e-05,-0.0,-0.12,1.05,13.89,-8.7,-11.62
7e-05,0.04,-0.12,1.01,13.62,-5.56,-15.37
7.333333333333333e-05,0.07,-0.12,1.0,14.12,-1.37,-16.24
7.666666666666667e-05,0.12,-0.1,1.02,14.99,-0.55,-13.57
8e-05,0.12,-0.09,1.05,13.45,-0.72,-8.56
8.333333333333334e-05,0.1,-0.08,1.07,12.12,-3.53,-4.38
8.666666666666668e-05,0.1,-0.08,1.08,9.02,-5.44,-0.79
9.000000000000002e-05,0.1,-0.07,1.06,7.19,-3.76,0.93
9.333333333333336e-05,0.07,-0.08,1.04,6.37,0.17,-0.32
9.66666666666667e-05,0.06,-0.08,1.05,6.02,-1.07,-1.54
0.00010000000000000003,0.08,-0.07,1.04,6.35,2.06,-1.74
0.00010333333333333337,0.06,-0.07,1.04,5.34,3.34,-2.15
0.00010666666666666671,0.06,-0.07,1.06,4.49,2.34,-1.86
0.00011000000000000004,0.08,-0.07,1.04,5.04,-1.91,-1.02
0.00011333333333333338,0.06,-0.08,1.02,4.93,-3.37,-1.48
0.00011666666666666672,0.07,-0.07,1.02,5.5,-2.27,-1.6
0.00012000000000000006,0.08,-0.06,1.05,3.24,-3.11,-1.31
0.0001233333333333334,0.1,-0.05,1.06,0.4,-1.88,-0.96
0.00012666666666666672,0.11,-0.06,1.0,2.55,0.82,0.53
0.00013000000000000004,0.09,-0.07,1.01,3.6,-1.15,1.53
0.00013333333333333337,0.09,-0.07,1.0,3.59,0.35,1.98
0.0001366666666666667,0.07,-0.08,0.99,4.05,2.09,-0.23
0.00014000000000000001,0.07,-0.07,1.0,3.65,1.89,-1.27
0.00014333333333333334,0.11,-0.06,0.99,6.2,1.1,1.37
0.00014666666666666666,0.1,-0.06,1.02,6.66,-2.11,3.65
0.00015,0.08,-0.07,1.01,6.49,-2.75,3.31
0.0001533333333333333,0.1,-0.06,0.98,8.66,1.85,3.02
0.00015666666666666663,0.09,-0.05,1.03,7.73,1.45,3.69
0.00015999999999999996,0.08,-0.05,1.06,5.18,-2.64,3.88
0.00016333333333333328,0.08,-0.05,1.03,5.22,-2.95,3.4
0.0001666666666666666,0.09,-0.05,1.03,4.98,0.69,2.79
0.00016999999999999993,0.08,-0.06,1.01,4.4,1.05,2.93
0.00017333333333333325,0.08,-0.05,1.01,5.86,0.15,4.61
0.00017666666666666658,0.08,-0.05,1.01,6.41,-3.85,6.2
0.0001799999999999999,0.06,-0.06,1.03,6.08,-3.92,5.37
0.00018333333333333323,0.07,-0.06,1.01,6.61,2.44,3.08
0.00018666666666666655,0.06,-0.05,1.05,5.1,3.59,2.14
0.00018999999999999987,0.06,-0.04,1.06,2.35,0.75,2.69
0.0001933333333333332,0.08,-0.04,1.02,3.39,1.15,3.82
0.00019666666666666652,0.07,-0.05,0.99,5.34,3.83,2.67
0.00019999999999999985,0.05,-0.06,1.02,4.87,3.37,0.81
0.00020333333333333317,0.07,-0.05,1.0,5.08,6.38,0.7
0.0002066666666666665,0.08,-0.05,1.02,6.03,6.69,1.66
0.00020999999999999982,0.07,-0.03,1.04,3.5,1.13,3.15
0.00021333333333333314,0.09,-0.03,0.97,8.2,8.85,3.57
0.00021666666666666647,0.03,-0.04,1.13,-1.59,-0.17,0.52
0.0002199999999999998,0.07,-0.03,1.03,0.43,-0.41,1.28
0.00022333333333333311,0.1,-0.04,1.02,-0.23,8.09,2.37
0.00022666666666666644,0.06,-0.05,0.99,2.55,8.14,2.69
0.00022999999999999976,0.05,-0.06,1.01,3.54,5.92,5.45
0.0002333333333333331,0.04,-0.06,1.01,5.71,3.8,4.26
0.0002366666666666664,0.06,-0.05,1.01,4.34,1.39,3.91
0.00023999999999999974,0.03,-0.06,1.03,2.26,-3.37,2.02
0.00024333333333333306,0.04,-0.06,1.01,1.47,-3.37,1.01
0.0002466666666666664,0.08,-0.04,0.99,2.92,1.62,1.85
0.00024999999999999973,0.03,-0.05,1.02,2.2,-0.34,0.47
0.00025333333333333306,0.06,-0.04,1.02,2.46,-3.47,1.82
0.0002566666666666664,0.07,-0.03,1.04,1.02,-2.52,1.25
0.0002599999999999997,0.07,-0.05,1.02,1.31,-0.69,1.19
0.00026333333333333303,0.05,-0.05,0.99,3.5,2.05,0.9
0.00026666666666666635,0.07,-0.05,0.99,6.03,4.5,1.4
0.0002699999999999997,0.06,-0.03,1.04,5.65,-0.26,3.1
0.000273333333333333,0.05,-0.03,1.05,3.76,-0.02,2.4
0.0002766666666666663,0.04,-0.03,1.05,1.89,-0.89,1.02
0.00027999999999999965,0.02,-0.03,1.05,-0.05,-5.44,0.23
0.000283333333333333,0.06,-0.03,1.03,-0.15,-4.55,0.66
0.0002866666666666663,0.05,-0.03,1.0,-0.4,0.29,-0.38
0.0002899999999999996,0.06,-0.03,1.0,0.29,3.3,-1.02
0.00029333333333333295,0.06,-0.03,1.01,1.05,3.3,-0.7
0.00029666666666666627,0.07,-0.03,1.0,0.81,4.4,-0.49
0.0002999999999999996,0.07,-0.04,0.99,2.11,4.98,0.11
0.0003033333333333329,0.08,-0.04,0.99,1.74,3.48,0.11
0.00030666666666666624,0.08,-0.03,1.0,1.65,0.06,1.37
0.00030999999999999957,0.05,-0.02,1.01,0.17,0.06,-0.43
0.0003133333333333329,0.07,-0.03,1.0,-0.64,3.92,-1.15
0.0003166666666666662,0.08,-0.03,0.99,-0.31,3.69,0.08
0.00031999999999999954,0.09,-0.03,0.96,1.16,4.84,1.11
0.00032333333333333286,0.11,-0.04,0.91,6.12,12.06,1.18
0.0003266666666666662,0.11,-0.05,0.92,9.48,17.82,5.56
0.0003299999999999995,0.07,-0.02,1.01,7.34,10.14,2.7
0.00033333333333333283,0.12,0.01,1.02,3.16,8.78,4.47
0.00033666666666666616,0.1,-0.01,1.0,-5.44,9.25,3.45
0.0003399999999999995,0.02,-0.01,1.07,1.15,0.23,0.35
0.0003433333333333328,0.03,0.02,1.1,-10.06,-2.47,-3.19
0.00034666666666666613,0.05,-0.0,1.05,-15.5,-1.11,-3.18
0.00034999999999999945,0.05,-0.05,0.98,-5.77,-0.6,-1.91
0.0003533333333333328,0.03,-0.03,1.01,0.06,-0.53,-1.42
0.0003566666666666661,0.05,-0.03,1.05,-7.86,-6.47,2.43
0.0003599999999999994,0.04,-0.05,1.03,-4.96,6.08,-3.15
0.00036333333333333275,-0.0,-0.03,1.04,-6.89,4.15,-5.31
0.0003666666666666661,0.04,-0.11,0.96,-2.7,2.12,-4.49
0.0003699999999999994,0.03,-0.05,1.02,-0.24,2.58,-2.92
0.0003733333333333327,0.04,-0.05,1.0,1.22,-0.81,0.02
0.00037666666666666605,0.0,0.06,1.17,-0.26,-1.24,0.96
0.00037999999999999937,0.06,-0.05,1.0,0.46,0.92,2.15
0.0003833333333333327,0.04,-0.04,1.0,-3.63,-3.44,4.29
0.000386666666666666,-0.03,-0.05,1.03,-0.78,-8.49,2.17
0.00038999999999999934,0.02,-0.03,1.02,-4.41,-4.56,-0.66
0.00039333333333333267,0.03,-0.03,0.99,-6.55,-7.19,2.44
0.000396666666666666,0.03,-0.04,0.99,-1.91,2.52,0.43
0.0003999999999999993,0.04,-0.01,1.02,0.98,0.37,2.08
0.00040333333333333264,-0.02,-0.02,1.06,-0.78,-5.16,-0.37
0.00040666666666666596,-0.0,-0.02,1.03,-1.85,0.32,-4.05
0.0004099999999999993,0.02,-0.02,1.05,-3.21,-0.55,-4.34
0.0004133333333333326,0.04,-0.01,1.05,-1.8,-0.92,-1.91
0.00041666666666666593,0.06,-0.03,1.01,1.76,-0.38,0.46
0.00041999999999999926,0.05,-0.04,1.01,1.95,3.51,-0.03
0.0004233333333333326,0.02,-0.04,1.0,4.37,2.43,-1.79
0.0004266666666666659,0.0,-0.04,1.05,2.03,-5.25,-2.31
0.00042999999999999923,0.03,-0.03,1.05,-0.47,-9.56,-0.61
0.00043333333333333255,0.05,-0.02,1.0,2.26,-6.53,0.55
0.0004366666666666659,0.03,-0.04,1.01,2.67,-6.55,0.09
0.0004399999999999992,0.03,-0.03,1.03,1.71,-5.15,-2.0
0.0004433333333333325,0.04,-0.03,1.02,1.88,-1.44,-4.34
0.00044666666666666585,0.06,-0.03,1.02,2.96,-0.27,-3.1
0.0004499999999999992,0.05,-0.02,1.03,3.07,-2.78,-2.29
0.0004533333333333325,0.05,-0.03,1.01,3.07,0.06,-2.2
0.0004566666666666658,0.04,-0.03,1.02,4.11,-0.92,-2.4
0.00045999999999999915,0.02,-0.03,1.05,2.34,-4.89,-3.34
0.00046333333333333247,0.03,-0.02,1.04,1.19,-4.05,-4.72
0.0004666666666666658,0.01,-0.03,1.07,-1.1,-11.97,-6.24
0.0004699999999999991,0.07,-0.01,1.03,-3.51,-5.98,-6.09
0.00047333333333333244,0.08,-0.02,0.99,-2.02,0.31,-6.67
0.00047666666666666577,0.08,-0.03,1.0,-0.76,-0.92,-4.6
0.0004799999999999991,0.06,-0.03,1.03,0.44,-6.98,-3.04
0.0004833333333333324,0.05,-0.02,1.02,0.37,-6.41,-3.19
0.00048666666666666574,0.05,-0.03,1.0,1.11,-3.95,-4.4
0.0004899999999999991,0.06,-0.02,1.0,1.82,-1.98,-4.37
0.0004933333333333325,0.08,-0.02,1.03,0.56,-1.92,-3.22
0.0004966666666666659,0.04,-0.03,1.04,-1.34,-4.9,-3.6
0.0004999999999999993,0.05,-0.03,1.02,0.02,-6.08,-4.38
0.0005033333333333326,0.06,-0.04,0.98,2.31,-6.81,-4.61
0.000506666666666666,0.06,-0.04,1.0,0.6,-10.69,-5.25
0.0005099999999999994,0.04,-0.02,1.11,-5.89,-22.89,-7.85
0.0005133333333333328,0.01,-0.03,1.15,-23.95,-44.53,-12.7
0.0005166666666666661,-0.06,-0.03,1.19,-39.11,-63.88,-20.78
0.0005199999999999995,0.04,-0.02,1.01,-40.18,-53.36,-23.31
0.0005233333333333329,0.2,-0.08,0.76,-22.55,-13.63,-23.3
0.0005266666666666663,0.18,-0.09,0.85,-16.02,-5.3,-17.73
0.0005299999999999997,0.15,-0.11,0.88,1.5,-2.32,-12.9
0.000533333333333333,0.18,-0.07,0.85,8.7,4.52,-8.96
0.0005366666666666664,0.13,-0.09,0.92,11.08,0.08,-5.02
0.0005399999999999998,0.07,-0.02,1.05,5.57,-3.36,-9.6
0.0005433333333333332,0.12,-0.01,1.05,-0.37,-1.47,-7.16
0.0005466666666666665,0.07,-0.07,1.01,2.12,-8.21,-8.08
0.0005499999999999999,0.09,0.0,1.06,-0.17,-1.05,-10.82
0.0005533333333333333,0.17,-0.03,0.99,4.03,9.33,-7.39
0.0005566666666666667,0.17,-0.03,0.99,10.47,7.02,-3.19
0.0005600000000000001,0.13,-0.02,1.04,13.39,2.29,0.53
0.0005633333333333334,0.12,-0.03,1.07,10.96,1.95,-0.17
0.0005666666666666668,0.09,-0.03,1.08,6.47,3.88,-3.28
0.0005700000000000002,0.11,-0.01,1.09,2.0,5.39,-3.56
0.0005733333333333336,0.16,-0.02,1.04,3.16,10.92,-1.11
0.000576666666666667,0.13,-0.04,1.01,4.53,6.69,0.75
0.0005800000000000003,0.12,-0.04,0.99,6.06,3.94,1.82
0.0005833333333333337,0.14,-0.04,0.96,10.34,6.27,2.96
0.0005866666666666671,0.1,-0.04,1.0,10.85,0.34,3.36
0.0005900000000000005,0.07,-0.04,1.06,8.2,-9.65,1.56
0.0005933333333333338,0.05,-0.08,1.07,1.63,-23.02,-1.19
0.0005966666666666672,0.07,-0.02,1.09,-5.22,-27.63,-5.07
0.0006000000000000006,0.12,-0.03,1.03,-7.48,-26.4,-7.22
0.000603333333333334,0.16,-0.02,0.97,-5.04,-15.19,-4.73
0.0006066666666666674,0.14,-0.04,0.92,-0.56,-4.15,-5.11
0.0006100000000000007,0.13,0.0,0.96,4.24,0.12,-4.64
0.0006133333333333341,0.13,-0.03,1.0,6.66,-0.79,-5.02
0.0006166666666666675,0.15,-0.01,1.04,5.51,-1.51,-3.56
0.0006200000000000009,0.14,-0.01,1.04,5.62,-5.34,-0.56
0.0006233333333333342,0.14,-0.0,1.03,5.22,-4.96,0.0
0.0006266666666666676,0.14,-0.01,1.04,4.34,0.29,-1.19
0.000630000000000001,0.14,-0.0,1.05,1.83,0.99,-1.8
0.0006333333333333344,0.14,-0.01,1.05,1.3,0.87,-2.49
0.0006366666666666678,0.13,-0.02,1.02,2.53,3.53,-3.48
0.0006400000000000011,0.13,-0.01,1.0,3.82,4.12,-4.18
0.0006433333333333345,0.15,-0.02,0.99,5.22,4.35,-3.73
0.0006466666666666679,0.16,-0.01,1.05,4.61,2.17,-2.53
0.0006500000000000013,0.17,0.0,1.04,3.95,3.73,0.17
0.0006533333333333346,0.14,-0.01,1.04,3.28,2.03,1.11
0.000656666666666668,0.13,-0.01,1.04,2.14,0.92,1.44
0.0006600000000000014,0.12,-0.02,1.02,1.8,0.32,1.22
0.0006633333333333348,0.13,-0.02,1.01,1.98,2.72,-0.14
0.0006666666666666682,0.11,-0.02,1.01,0.44,2.4,-1.02
0.0006700000000000015,0.14,-0.01,1.0,-0.06,5.15,-0.87
0.0006733333333333349,0.12,-0.02,0.99,0.41,7.65,-1.56
0.0006766666666666683,0.12,-0.03,0.98,1.42,8.55,-2.46
0.0006800000000000017,0.12,-0.02,0.97,3.71,3.97,-2.06
0.000683333333333335,0.12,-0.03,0.96,4.17,0.61,-1.76
0.0006866666666666684,0.12,-0.02,0.99,2.08,-2.69,-2.17
0.0006900000000000018,0.11,-0.01,1.0,-0.49,-8.6,-2.26
0.0006933333333333352,0.08,-0.01,1.04,-5.63,-16.69,-4.69
0.0006966666666666686,0.08,-0.08,1.01,-11.91,-28.66,-9.16
0.0007000000000000019,0.12,0.0,1.06,-17.19,-26.26,-11.02
0.0007033333333333353,0.2,-0.0,0.93,-14.05,-8.95,-9.5
0.0007066666666666687,0.19,-0.02,0.94,-7.85,-0.87,-8.73
0.0007100000000000021,0.18,-0.0,0.96,-4.38,2.79,-7.05
0.0007133333333333355,0.15,-0.01,1.01,-3.05,1.48,-6.43
0.0007166666666666688,0.12,-0.05,1.04,-5.68,-0.52,-8.9
0.0007200000000000022,0.18,0.02,1.01,-1.88,3.02,-6.89
0.0007233333333333356,0.18,-0.01,0.97,2.27,6.76,-6.34
0.000726666666666669,0.14,-0.02,1.03,2.06,1.27,-7.76
0.0007300000000000023,0.18,-0.01,1.02,-2.56,0.56,-6.93
0.0007333333333333357,0.14,-0.02,1.03,-5.66,7.13,-6.78
0.0007366666666666691,0.14,-0.01,1.0,-2.55,12.61,-7.37
0.0007400000000000025,0.13,-0.02,1.01,-1.57,13.19,-7.53
0.0007433333333333359,0.14,-0.02,0.97,2.58,13.44,-5.45
0.0007466666666666692,0.15,-0.02,0.97,7.51,9.88,-3.28
0.0007500000000000026,0.11,-0.02,0.99,10.26,0.27,-2.76
0.000753333333333336,0.08,-0.0,1.06,8.35,-10.03,-6.12
0.0007566666666666694,0.16,0.02,1.05,5.83,-5.73,-6.82
0.0007600000000000028,0.18,0.02,1.05,3.16,0.18,-6.2
0.0007633333333333361,0.19,0.02,1.07,-1.94,0.63,-3.47
0.0007666666666666695,0.15,0.0,1.06,-4.26,3.77,-3.71
0.0007700000000000029,0.15,-0.01,1.0,-1.76,9.88,-4.85
0.0007733333333333363,0.16,-0.01,0.99,2.17,8.81,-2.99
0.0007766666666666696,0.16,-0.02,0.98,8.02,5.34,1.36
0.000780000000000003,0.15,-0.02,1.01,11.13,1.85,2.78
0.0007833333333333364,0.16,-0.0,1.05,10.7,0.46,5.22
0.0007866666666666698,0.14,0.01,1.1,6.35,-5.02,6.66
0.0007900000000000032,0.15,0.0,1.08,3.11,-5.31,6.38
0.0007933333333333365,0.15,0.01,1.04,-0.43,-4.05,7.24
0.0007966666666666699,0.16,-0.0,0.97,1.42,2.43,9.19
0.0008000000000000033,0.12,-0.02,0.97,6.34,2.14,8.72
0.0008033333333333367,0.1,-0.02,1.01,8.31,1.71,7.63
0.00080666666666667,0.11,-0.01,0.98,10.38,6.08,5.94
0.0008100000000000034,0.05,-0.01,1.04,9.94,2.0,3.15
0.0008133333333333368,0.08,0.0,1.04,8.63,0.03,2.0
0.0008166666666666702,0.1,0.01,1.01,7.62,5.48,0.79
0.0008200000000000036,0.09,0.0,1.02,6.29,6.35,-0.98
0.0008233333333333369,0.09,0.01,1.05,4.41,3.83,-1.42
0.0008266666666666703,0.11,0.01,1.01,5.91,6.61,-1.37
0.0008300000000000037,0.1,-0.0,1.02,6.17,3.56,-1.39
0.0008333333333333371,0.11,0.01,1.02,6.08,0.82,-0.99
0.0008366666666666705,0.11,0.02,0.99,8.85,0.34,-0.29
0.0008400000000000038,0.11,0.03,1.05,6.84,-1.02,-1.19
0.0008433333333333372,0.1,0.03,1.08,1.77,-0.9,-2.92
0.0008466666666666706,0.13,0.04,1.09,-1.18,-0.12,-2.53
0.000850000000000004,0.14,0.03,1.04,-1.66,0.64,-0.98
0.0008533333333333373,0.14,0.02,1.01,-0.15,-0.24,0.26
0.0008566666666666707,0.12,0.01,0.99,2.31,-2.43,1.01
0.0008600000000000041,0.12,0.02,0.98,4.61,-2.37,0.49
0.0008633333333333375,0.13,0.01,0.99,5.86,0.32,0.72
0.0008666666666666709,0.12,0.02,0.98,7.24,2.43,1.05
0.0008700000000000042,0.12,0.01,0.98,7.86,4.56,0.11
0.0008733333333333376,0.11,0.02,1.02,5.08,2.95,-0.9
0.000876666666666671,0.14,0.03,1.02,3.88,3.02,-0.6
0.0008800000000000044,0.13,0.03,1.03,2.11,-1.07,0.6
0.0008833333333333377,0.12,0.02,1.01,2.64,-5.28,1.76
0.0008866666666666711,0.14,0.02,0.95,6.87,-1.68,2.17
0.0008900000000000045,0.11,0.01,0.98,7.85,-0.82,1.76
0.0008933333333333379,0.13,0.01,0.97,9.54,2.31,2.17
0.0008966666666666713,0.13,0.02,0.97,11.57,5.85,3.56
0.0009000000000000046,0.1,0.03,1.01,10.06,4.84,3.65
0.000903333333333338,0.09,0.02,1.01,8.67,7.98,3.83
0.0009066666666666714,0.07,0.01,1.01,8.49,-2.0,3.83
0.0009100000000000048,0.11,0.01,1.02,2.96,-0.76,4.32
0.0009133333333333382,0.1,0.03,0.99,-0.46,-2.56,1.44
0.0009166666666666715,0.15,0.07,0.93,7.1,6.76,3.15
0.0009200000000000049,0.14,0.06,0.97,10.17,4.11,4.4
0.0009233333333333383,0.09,0.06,0.99,14.49,1.98,3.54
0.0009266666666666717,0.08,0.06,1.05,12.61,1.91,0.93
0.000930000000000005,0.1,0.08,1.05,10.35,2.08,-0.56
0.0009333333333333384,0.08,0.07,1.1,6.47,-1.31,-2.53
0.0009366666666666718,0.11,0.09,1.11,0.17,0.06,-4.05
0.0009400000000000052,0.15,0.09,1.04,-0.85,8.29,-2.78
0.0009433333333333386,0.13,0.08,1.04,0.15,7.59,-2.24
0.0009466666666666719,0.12,0.07,1.03,0.34,3.91,-1.19
0.0009500000000000053,0.13,0.08,1.0,1.27,2.14,-20.67
0.0009533333333333387,0.15,0.05,0.98,3.33,6.23,-1.88
0.0009566666666666721,0.16,0.07,0.98,5.51,7.65,-1.24
0.0009600000000000054,0.17,0.1,0.99,5.42,11.68,4.03
0.0009633333333333388,0.13,0.11,0.94,8.76,19.91,8.11
0.0009666666666666722,0.1,0.07,0.99,10.37,18.41,5.51
0.0009700000000000056,0.05,0.07,1.01,10.69,12.31,-2.99
0.000973333333333339,0.05,0.07,1.03,7.08,6.0,-1.71
0.0009766666666666723,-0.02,0.07,1.06,0.96,-5.07,-7.69
0.0009800000000000056,0.09,0.1,1.03,-3.18,-7.54,-10.67
0.0009833333333333389,0.12,0.06,1.02,-0.05,4.82,-8.76
0.0009866666666666721,0.12,0.05,0.95,3.3,5.71,-6.41
0.0009900000000000054,0.11,0.06,1.0,1.44,3.31,-5.5
0.0009933333333333387,0.04,0.05,1.04,0.78,-3.11,-7.94
0.000996666666666672,0.07,0.07,1.01,0.7,-2.29,-9.1
