time,accl_x,accl_y,accl_z,gyro_x,gyro_y,gyro_z
0.0,-0.0,-0.28,0.92,12.11,1.28,-0.38
3.3333333333333333e-06,0.0,-0.27,0.92,13.36,1.62,0.37
6.666666666666667e-06,-0.01,-0.26,0.91,13.95,-1.82,1.02
9.999999999999999e-06,-0.03,-0.25,0.89,14.92,-3.77,0.63
1.3333333333333333e-05,-0.05,-0.24,0.9,14.08,-6.93,-1.39
1.6666666666666667e-05,-0.02,-0.22,0.85,15.76,-7.48,-1.74
2e-05,-0.05,-0.22,0.85,16.82,-13.48,-3.05
2.3333333333333336e-05,-0.04,-0.23,0.84,18.9,-19.82,-3.79
2.666666666666667e-05,0.01,-0.23,0.79,23.48,-17.05,-3.28
3.0000000000000004e-05,0.02,-0.23,0.84,23.6,-16.41,-3.53
3.3333333333333335e-05,0.05,-0.23,0.84,23.85,-9.57,-3.13
3.6666666666666666e-05,0.09,-0.21,0.88,25.39,-3.89,0.72
3.9999999999999996e-05,0.05,-0.21,0.93,24.87,-4.78,7.18
4.333333333333333e-05,0.02,-0.21,0.95,25.54,-6.34,3.71
4.666666666666666e-05,0.07,-0.23,0.92,27.25,1.1,5.19
4.999999999999999e-05,0.1,-0.23,0.91,29.51,10.55,6.78
5.333333333333332e-05,0.06,-0.22,1.03,29.18,6.31,10.05
5.666666666666665e-05,0.04,-0.19,1.13,25.3,1.1,14.23
5.999999999999998e-05,-0.03,-0.17,1.21,21.89,-2.21,15.79
6.333333333333332e-05,-0.09,-0.14,1.28,18.6,-3.18,14.32
6.666666666666666e-05,-0.1,-0.16,1.23,16.69,-3.34,10.23
7e-05,-0.11,-0.19,1.17,13.82,-4.72,5.15
7.333333333333333e-05,-0.09,-0.19,1.11,12.34,-4.79,2.26
7.666666666666667e-05,-0.07,-0.19,1.1,10.9,-10.81,3.05
8e-05,-0.05,-0.19,0.99,14.98,-8.99,2.23
8.333333333333334e-05,-0.02,-0.19,0.97,15.71,-2.7,0.9
8.666666666666668e-05,-0.0,-0.16,0.98,15.36,2.26,0.15
9.000000000000002e-05,-0.01,-0.15,1.04,14.31,0.43,0.95
9.333333333333336e-05,-0.03,-0.14,1.02,15.63,-2.26,1.36
9.66666666666667e-05,-0.04,-0.15,1.05,14.37,-3.45,0.27
0.00010000000000000003,-0.02,-0.14,1.05,14.12,-3.71,-0.95
0.00010333333333333337,-0.01,-0.14,1.04,15.95,-2.38,-1.5
0.00010666666666666671,-0.02,-0.15,1.03,14.49,-6.7,-1.28
0.00011000000000000004,0.01,-0.13,1.06,14.09,-8.02,-0.67
0.00011333333333333338,0.01,-0.14,1.0,14.64,-5.39,-1.3
0.00011666666666666672,0.03,-0.14,1.01,16.21,-5.05,-0.58
0.00012000000000000006,0.01,-0.13,1.04,15.85,-6.24,-0.14
0.0001233333333333334,0.02,-0.12,1.02,15.98,-3.56,-0.26
0.00012666666666666672,0.03,-0.12,1.02,15.94,-2.17,0.06
0.00013000000000000004,0.03,-0.13,1.04,16.82,-3.91,4.27
0.00013333333333333337,0.02,-0.14,1.04,18.81,-7.31,3.63
0.0001366666666666667,-0.04,-0.14,1.08,19.5,-14.99,2.17
0.00014000000000000001,-0.18,-0.12,1.11,20.31,-35.02,-4.05
0.00014333333333333334,0.01,-0.09,1.16,13.8,-28.5,-2.89
0.00014666666666666666,0.09,-0.07,1.22,3.28,-19.42,6.72
0.00015,-0.02,0.09,1.3,-0.09,-4.63,10.32
0.0001533333333333333,0.02,-0.12,1.04,4.85,-0.78,6.96
0.00015666666666666663,0.04,-0.15,1.06,7.88,-0.72,9.54
0.00015999999999999996,0.02,-0.11,1.07,8.95,-2.82,3.07
0.00016333333333333328,0.05,0.0,1.0,12.47,-3.95,1.45
0.0001666666666666666,-0.02,-0.1,1.07,7.97,-8.14,0.76
0.00016999999999999993,0.01,-0.09,1.04,7.79,-11.1,-0.95
0.00017333333333333325,0.01,-0.09,1.0,8.87,-16.43,-1.79
0.00017666666666666658,0.03,-0.07,1.01,8.5,-18.43,-0.99
0.0001799999999999999,0.06,-0.06,0.99,9.04,-15.86,-0.09
0.00018333333333333323,0.03,-0.05,0.97,9.51,-17.85,-2.06
0.00018666666666666655,0.04,-0.06,0.93,12.81,-14.18,-2.18
0.00018999999999999987,0.09,-0.05,0.97,10.69,-4.81,15.31
0.0001933333333333332,0.1,-0.05,0.97,9.42,1.88,-1.48
0.00019666666666666652,0.12,-0.06,0.99,8.09,5.39,2.12
0.00019999999999999985,0.07,-0.06,0.99,8.93,4.49,3.5
0.00020333333333333317,0.04,-0.08,1.02,6.7,2.84,4.0
0.0002066666666666665,0.05,-0.05,1.0,6.55,1.59,3.3
0.00020999999999999982,0.03,-0.07,0.99,10.73,0.55,1.5
0.00021333333333333314,0.02,-0.07,1.0,11.01,-5.1,0.34
0.00021666666666666647,0.04,-0.05,1.06,8.66,-10.69,0.46
0.0002199999999999998,0.08,-0.05,1.04,6.12,-5.66,0.76
0.00022333333333333311,0.06,-0.05,1.01,6.26,1.18,-0.58
0.00022666666666666644,0.07,-0.06,1.04,6.53,4.89,-0.61
0.00022999999999999976,0.06,-0.05,1.05,5.8,1.3,0.53
0.0002333333333333331,0.04,-0.05,1.05,5.91,-4.15,0.87
0.0002366666666666664,0.05,-0.04,1.08,3.98,-4.92,0.93
0.00023999999999999974,0.07,-0.06,1.03,3.08,-2.43,1.5
0.00024333333333333306,0.05,-0.05,0.99,5.34,-1.08,0.5
0.0002466666666666664,0.07,-0.06,0.99,6.56,1.45,1.25
0.00024999999999999973,0.08,-0.07,0.96,9.24,5.19,1.86
0.00025333333333333306,0.06,-0.06,0.98,9.82,7.54,1.36
0.0002566666666666664,0.05,-0.03,1.04,8.4,5.08,1.25
0.0002599999999999997,0.06,-0.02,1.07,6.9,0.15,2.37
0.00026333333333333303,0.06,-0.02,1.04,9.11,-0.26,1.97
0.00026666666666666635,0.11,-0.02,1.08,7.91,3.28,4.12
0.0002699999999999997,0.1,-0.01,1.07,5.56,7.45,5.11
0.000273333333333333,0.07,0.01,1.06,4.84,10.38,3.28
0.0002766666666666663,0.04,-0.0,1.08,3.21,3.51,5.37
0.00027999999999999965,0.02,-0.02,1.08,1.59,-4.31,3.98
0.000283333333333333,-0.01,-0.02,1.05,2.43,-10.66,2.87
0.0002866666666666663,0.02,-0.01,1.01,3.69,-9.1,1.05
0.0002899999999999996,0.05,-0.03,0.97,2.67,-5.48,-0.29
0.00029333333333333295,0.06,-0.04,0.96,6.15,-2.11,-0.08
0.00029666666666666627,0.07,-0.04,0.99,4.44,-4.49,0.95
0.0002999999999999996,0.08,-0.02,0.98,5.28,-4.11,3.62
0.0003033333333333329,0.06,-0.03,0.95,7.19,-5.57,3.3
0.00030666666666666624,0.04,-0.04,0.95,8.79,-9.79,2.35
0.00030999999999999957,0.0,-0.03,0.94,8.2,-16.08,-0.4
0.0003133333333333329,0.02,-0.03,0.91,10.26,-18.24,-4.09
0.0003166666666666662,0.09,-0.02,0.9,12.34,-10.5,-5.74
0.00031999999999999954,0.14,0.0,0.98,11.04,-1.76,-3.4
0.00032333333333333286,0.14,0.04,1.06,7.88,5.62,-0.58
0.0003266666666666662,0.08,0.04,1.12,3.79,2.58,1.11
0.0003299999999999995,0.04,0.03,1.09,5.53,0.02,0.29
0.00033333333333333283,-0.01,0.0,1.09,4.85,-5.57,-3.73
0.00033666666666666616,-0.0,-0.0,1.06,3.92,-11.56,-7.18
0.0003399999999999995,0.05,0.0,1.05,4.17,-13.3,-8.21
0.0003433333333333328,0.12,0.01,1.01,5.3,-8.0,-5.79
0.00034666666666666613,0.11,0.02,1.04,4.99,-6.89,-3.54
0.00034999999999999945,0.07,0.01,1.0,6.46,-7.62,-3.1
0.0003533333333333328,0.07,0.01,1.01,6.4,-8.72,-3.4
0.0003566666666666661,0.06,0.01,1.04,5.16,-7.05,-3.48
0.0003599999999999994,0.06,0.02,1.03,4.7,-9.27,-3.6
0.00036333333333333275,0.07,0.02,0.99,5.15,-7.3,-3.88
0.0003666666666666661,0.08,0.03,1.01,3.59,-4.38,-2.92
0.0003699999999999994,0.09,0.03,1.0,4.56,0.2,-2.2
0.0003733333333333327,0.06,0.02,1.02,4.92,2.14,-2.98
0.00037666666666666605,0.06,0.02,1.0,6.79,2.11,-2.99
0.00037999999999999937,0.03,0.03,1.09,4.17,-3.91,-2.43
0.0003833333333333327,0.05,0.04,1.06,4.93,-4.05,-2.82
0.000386666666666666,0.05,0.03,1.07,3.83,-0.9,-4.23
0.00038999999999999934,0.03,0.03,1.07,3.85,-0.75,-5.63
0.00039333333333333267,0.01,0.03,1.1,2.35,-6.15,-7.04
0.000396666666666666,-0.01,0.03,1.06,1.1,-11.25,-9.53
0.0003999999999999993,-0.0,0.03,1.07,-1.85,-14.6,-13.56
0.00040333333333333264,0.01,0.03,1.08,-6.27,-18.98,-16.43
0.00040666666666666596,0.05,0.04,0.99,-4.09,-14.93,-18.03
0.0004099999999999993,0.07,0.03,0.96,-1.95,-17.6,-17.51
0.0004133333333333326,0.03,0.03,0.96,0.32,-28.52,-20.79
0.00041666666666666593,0.05,0.05,0.95,-5.57,-17.62,-26.11
0.00041999999999999926,0.06,0.07,1.03,-16.61,-4.72,-33.73
0.0004233333333333326,0.17,0.06,1.03,-26.46,12.38,-35.36
0.0004266666666666659,0.22,0.04,0.94,-26.06,14.7,-28.61
0.00042999999999999923,0.21,0.01,0.97,-26.02,5.83,-19.85
0.00043333333333333255,0.18,0.0,0.93,-21.47,-2.58,-15.04
0.0004366666666666659,0.15,-0.01,0.9,-16.85,-1.4,-15.5
0.0004399999999999992,0.08,0.02,1.01,-11.08,-0.93,-17.28
0.0004433333333333325,0.17,-0.0,0.98,-6.15,-0.18,-16.61
0.00044666666666666585,0.16,-0.01,1.02,-4.09,-4.27,-15.83
0.0004499999999999992,0.22,0.0,0.99,0.37,1.68,-12.17
0.0004533333333333325,0.2,0.02,1.0,4.21,-1.3,-7.13
0.0004566666666666658,0.18,0.01,0.98,8.64,-1.21,-4.81
0.00045999999999999915,0.14,-0.0,1.02,6.05,-2.06,-4.87
0.00046333333333333247,0.17,0.03,1.05,1.16,2.76,-3.73
0.0004666666666666658,0.21,0.01,1.03,-1.82,3.86,0.55
0.0004699999999999991,0.16,0.01,0.95,2.44,0.55,2.32
0.00047333333333333244,0.17,0.01,0.96,3.53,4.27,3.21
0.00047666666666666577,0.14,0.01,1.02,3.36,6.12,3.59
0.0004799999999999991,0.11,0.01,1.02,2.87,4.7,3.33
0.0004833333333333324,0.05,-0.06,0.99,8.49,2.34,1.89
0.00048666666666666574,0.1,-0.01,0.95,11.1,1.24,0.4
0.0004899999999999991,0.11,-0.0,1.0,11.66,-1.36,0.7
0.0004933333333333325,0.11,0.0,1.0,12.14,1.18,-0.52
0.0004966666666666659,0.13,0.01,1.02,12.03,2.12,0.81
0.0004999999999999993,0.12,0.02,1.09,8.9,2.06,1.92
0.0005033333333333326,0.11,0.01,1.08,6.63,-5.62,-10.63
0.000506666666666666,0.1,0.0,1.01,8.67,-1.98,-0.82
0.0005099999999999994,0.12,-0.0,1.03,9.3,-0.76,-1.73
0.0005133333333333328,0.13,-0.0,1.03,9.13,0.02,-1.59
0.0005166666666666661,0.11,0.0,1.02,11.05,-4.05,-1.47
0.0005199999999999995,0.16,0.02,1.06,11.36,-2.44,1.02
0.0005233333333333329,0.14,0.02,1.12,8.47,-8.06,3.47
0.0005266666666666663,0.14,0.01,1.07,8.05,-6.17,3.53
0.0005299999999999997,0.12,0.01,1.11,7.36,-5.83,3.68
0.000533333333333333,0.14,0.0,1.04,8.96,-0.82,3.86
0.0005366666666666664,0.11,-0.0,1.03,11.27,3.07,3.05
0.0005399999999999998,0.09,0.01,1.11,7.18,-1.44,-0.32
0.0005433333333333332,0.11,0.03,1.07,7.4,-1.28,3.5
0.0005466666666666665,0.09,0.03,1.06,6.73,-1.31,1.76
0.0005499999999999999,0.09,0.03,1.08,4.9,-4.84,1.69
0.0005533333333333333,0.11,0.03,1.0,8.06,-3.68,1.28
0.0005566666666666667,0.1,0.03,1.0,8.64,-4.81,-0.24
0.0005600000000000001,0.11,0.04,0.99,10.79,-3.79,-0.56
0.0005633333333333334,0.12,0.05,1.03,10.05,-6.69,-4.0
0.0005666666666666668,0.12,0.07,1.07,3.27,-4.63,0.23
0.0005700000000000002,0.11,0.07,1.02,2.87,-1.74,-1.25
0.0005733333333333336,0.09,0.06,1.01,3.1,-4.05,-2.46
0.000576666666666667,0.1,0.07,1.01,1.63,-6.75,-3.71
0.0005800000000000003,0.12,0.07,0.96,6.38,-8.15,-2.4
0.0005833333333333337,0.06,0.05,1.01,6.2,-16.0,-3.85
0.0005866666666666671,0.07,0.07,1.02,3.33,-18.24,-6.64
0.0005900000000000005,0.1,0.06,0.98,2.89,-15.05,-8.82
0.0005933333333333338,0.13,0.06,0.93,6.87,-12.31,-8.46
0.0005966666666666672,0.16,0.08,0.99,6.21,-10.6,-5.82
0.0006000000000000006,0.24,0.06,1.01,6.73,-1.25,-0.6
0.000603333333333334,0.21,0.1,1.03,5.82,7.11,0.87
0.0006066666666666674,0.24,0.06,1.06,3.57,24.46,4.44
0.0006100000000000007,0.2,0.03,1.1,-3.8,33.88,6.63
0.0006133333333333341,0.14,0.0,1.09,-6.7,29.59,9.48
0.0006166666666666675,0.06,-0.01,1.02,-4.08,27.86,5.11
0.0006200000000000009,0.02,-0.02,1.03,0.29,17.02,0.89
0.0006233333333333342,-0.01,-0.02,1.04,3.5,3.16,-4.47
0.0006266666666666676,0.02,0.02,1.07,5.57,-4.81,-8.23
0.000630000000000001,0.08,0.06,1.1,4.21,-10.89,-7.68
0.0006333333333333344,0.13,0.08,1.09,-0.7,-4.38,-8.55
0.0006366666666666678,0.18,0.09,1.06,-3.59,5.16,-7.39
0.0006400000000000011,0.18,0.07,1.01,-3.37,5.63,-5.37
0.0006433333333333345,0.14,0.06,0.96,-0.92,3.37,-5.02
0.0006466666666666679,0.11,0.08,1.0,-2.47,2.18,-7.18
0.0006500000000000013,0.13,0.11,0.99,-3.16,1.66,-6.46
0.0006533333333333346,0.18,0.12,0.92,0.63,5.02,-3.47
0.000656666666666668,0.16,0.11,0.95,0.72,1.22,-1.56
0.0006600000000000014,0.11,0.14,0.91,3.77,-1.68,2.15
0.0006633333333333348,0.18,0.1,0.94,5.15,6.69,3.1
0.0006666666666666682,0.17,0.11,0.94,4.95,11.33,3.74
0.0006700000000000015,0.15,0.11,0.95,6.41,14.06,5.1
0.0006733333333333349,0.15,0.1,0.98,5.85,11.8,7.69
0.0006766666666666683,0.11,0.1,0.98,6.32,7.82,8.79
0.0006800000000000017,0.09,0.1,0.99,6.6,4.72,7.76
0.000683333333333335,0.08,0.1,0.98,7.86,2.92,6.24
0.0006866666666666684,0.1,0.08,0.96,10.21,5.36,5.91
0.0006900000000000018,0.09,0.09,0.98,13.07,2.93,6.24
0.0006933333333333352,0.08,0.09,1.02,12.82,-0.29,6.81
0.0006966666666666686,0.1,0.09,1.02,14.27,-0.43,7.76
0.0007000000000000019,0.11,0.09,1.03,13.27,-0.29,8.73
0.0007033333333333353,0.08,0.11,1.04,14.47,-2.27,9.39
0.0007066666666666687,0.08,0.1,1.07,16.32,-7.18,10.75
0.0007100000000000021,0.1,0.09,1.06,13.95,3.56,7.74
0.0007133333333333355,0.09,0.09,1.06,9.18,5.66,8.17
0.0007166666666666688,0.09,0.08,1.03,6.82,7.76,7.89
0.0007200000000000022,0.06,0.08,1.07,5.21,4.23,6.11
0.0007233333333333356,0.07,0.09,1.08,2.44,-1.3,7.86
0.000726666666666669,0.05,0.1,1.06,0.14,-0.72,5.42
0.0007300000000000023,0.07,0.09,1.06,-2.12,3.76,3.57
0.0007333333333333357,0.08,0.09,1.01,-0.11,7.51,3.97
0.0007366666666666691,0.04,0.08,1.05,-1.47,3.66,2.53
0.0007400000000000025,0.08,0.17,1.04,-2.93,-1.53,2.87
0.0007433333333333359,0.07,0.09,1.01,-1.22,-2.7,2.17
0.0007466666666666692,0.06,0.1,1.02,-0.89,-5.6,1.19
0.0007500000000000026,0.06,0.09,0.99,-0.37,-5.36,-0.92
0.000753333333333336,0.1,0.11,1.02,-0.44,-2.89,-0.5
0.0007566666666666694,0.1,0.11,1.0,0.0,-1.04,1.53
0.0007600000000000028,0.12,0.11,0.94,4.15,3.88,1.16
0.0007633333333333361,0.13,0.12,1.01,3.37,5.28,2.73
0.0007666666666666695,0.12,0.11,0.98,5.91,4.78,4.53
0.0007700000000000029,0.11,0.11,1.0,6.06,6.41,4.85
0.0007733333333333363,0.1,0.11,1.06,4.27,2.46,5.15
0.0007766666666666696,0.09,0.11,1.01,8.56,-1.33,5.86
0.000780000000000003,0.08,0.1,1.04,6.23,4.44,3.6
0.0007833333333333364,0.05,0.11,1.07,1.57,4.6,1.44
0.0007866666666666698,0.07,0.1,1.0,4.63,3.79,0.35
0.0007900000000000032,0.08,0.1,1.06,4.26,-1.02,0.82
0.0007933333333333365,0.08,0.11,1.09,1.82,-5.28,2.15
0.0007966666666666699,0.08,0.11,1.05,2.11,-2.61,0.63
0.0008000000000000033,0.06,0.11,1.04,1.39,-3.59,-1.04
0.0008033333333333367,0.06,0.11,1.06,1.21,-8.7,-1.01
0.00080666666666667,0.06,0.12,1.07,0.18,-12.75,-0.66
0.0008100000000000034,0.06,0.12,1.08,-0.79,-15.34,-1.48
0.0008133333333333368,0.06,0.12,1.08,-3.1,-15.3,-2.87
0.0008166666666666702,0.03,0.11,1.06,-2.55,-20.31,-4.26
0.0008200000000000036,0.05,0.1,1.03,-2.15,-21.02,-5.79
0.0008233333333333369,0.07,0.11,0.99,-1.16,-18.99,-6.21
0.0008266666666666703,0.08,0.11,1.01,-4.26,-17.97,-6.44
0.0008300000000000037,0.1,0.11,0.97,-3.34,-16.81,-5.5
0.0008333333333333371,0.13,0.1,0.93,-1.95,-9.16,-5.68
0.0008366666666666705,0.1,0.09,0.94,0.17,-6.53,-5.83
0.0008400000000000038,0.12,0.1,0.97,3.42,-9.71,-2.7
0.0008433333333333372,0.16,0.1,0.96,3.3,-2.37,0.46
0.0008466666666666706,0.12,0.09,0.97,4.21,3.6,1.21
0.000850000000000004,0.09,0.09,0.97,1.85,10.49,-0.38
0.0008533333333333373,0.07,0.11,1.02,0.52,13.13,-1.92
0.0008566666666666707,0.04,0.1,1.02,0.9,0.2,-2.6
0.0008600000000000041,0.04,0.13,1.08,2.52,-7.22,-4.14
0.0008633333333333375,0.13,0.1,0.98,-4.63,15.24,-11.86
0.0008666666666666709,0.12,0.12,1.03,-0.32,4.53,-8.47
0.0008700000000000042,0.13,0.13,1.02,4.12,3.07,-6.9
0.0008733333333333376,0.16,0.11,0.98,6.52,-3.66,-3.82
0.000876666666666671,0.16,0.15,1.08,6.27,-11.1,-2.84
0.0008800000000000044,0.18,0.14,1.02,-4.58,4.63,-7.22
0.0008833333333333377,0.19,0.16,1.02,-6.53,5.54,-6.87
0.0008866666666666711,0.18,0.16,0.98,-4.89,5.22,-4.58
0.0008900000000000045,0.2,0.14,1.0,-6.08,2.64,-0.82
0.0008933333333333379,0.23,0.14,0.93,-2.14,2.61,4.2
0.0008966666666666713,0.21,0.15,0.96,0.08,0.23,5.08
0.0009000000000000046,0.21,0.15,1.0,-4.37,14.14,7.18
0.000903333333333338,0.17,0.17,1.06,-10.05,11.15,7.91
0.0009066666666666714,0.14,0.16,1.05,-13.01,15.8,4.96
0.0009100000000000048,0.11,0.12,1.04,-11.98,6.96,4.87
0.0009133333333333382,0.14,0.12,0.94,-12.73,9.91,2.56
0.0009166666666666715,0.17,0.11,0.99,-13.97,14.66,1.65
0.0009200000000000049,0.16,0.11,1.05,-20.93,19.45,0.21
0.0009233333333333383,0.14,0.09,1.0,-25.42,18.75,-1.48
0.0009266666666666717,0.08,0.09,1.06,-24.52,14.06,-0.99
0.000930000000000005,0.14,0.09,1.03,-28.24,20.4,-3.22
0.0009333333333333384,0.16,0.11,1.0,-30.24,18.31,0.03
0.0009366666666666718,0.14,0.07,0.92,-26.7,25.4,1.65
0.0009400000000000052,0.1,0.06,0.97,-23.44,15.25,3.28
0.0009433333333333386,0.06,0.06,0.97,-22.02,11.94,3.22
0.0009466666666666719,0.04,0.04,0.96,-12.24,2.2,3.56
0.0009500000000000053,0.06,0.07,1.07,-19.25,-12.41,4.98
0.0009533333333333387,0.06,0.1,1.2,-39.73,-15.05,9.24
0.0009566666666666721,-0.18,-0.35,1.18,-56.03,-17.02,10.34
0.0009600000000000054,0.23,0.4,0.99,-55.98,-17.33,17.95
0.0009633333333333388,-0.01,-0.04,0.91,-43.47,-20.41,7.36
0.0009666666666666722,-0.04,-0.05,0.86,-25.3,-19.4,1.45
0.0009700000000000056,0.01,-0.04,0.87,-7.05,-22.11,-2.9
0.000973333333333339,0.04,-0.02,1.07,-3.98,-20.82,-0.06
0.0009766666666666723,0.04,-0.02,1.14,-1.5,-19.45,-3.27
0.0009800000000000056,0.13,-0.01,1.05,5.5,-10.23,-0.31
0.0009833333333333389,0.19,-0.01,1.08,5.83,5.24,4.37
0.0009866666666666721,0.13,-0.02,1.17,1.59,6.26,7.45
0.0009900000000000054,0.09,-0.03,1.14,-0.17,6.21,7.79
0.0009933333333333387,0.1,-0.03,1.08,1.69,3.53,7.5
0.000996666666666672,0.01,-0.02,1.1,1.91,0.02,3.66
0.0010000000000000052,0.02,-0.02,1.09,-0.27,-9.44,-0.11
0.0010033333333333385,0.03,-0.01,1.07,-2.38,-16.5,-3.44
0.0010066666666666718,0.06,0.01,1.02,0.7,-19.27,-5.16
0.001010000000000005,0.11,0.0,0.94,2.02,-16.53,-5.45
0.0010133333333333383,0.13,-0.01,0.96,-5.24,9.83,30.75
0.0010166666666666716,0.15,-0.01,0.94,4.7,-2.05,2.12
0.0010200000000000048,0.19,0.02,0.96,3.86,4.29,-1.91
0.0010233333333333381,0.17,0.03,1.01,-5.94,20.34,29.51
0.0010266666666666714,0.24,0.04,0.96,0.52,16.66,4.03
0.0010300000000000047,0.16,-0.01,0.99,5.48,13.34,4.03
0.001033333333333338,0.2,-0.01,0.92,8.61,19.98,4.75
0.0010366666666666712,0.18,-0.01,0.98,7.4,23.39,6.43
0.0010400000000000045,0.08,-0.01,1.05,8.72,18.37,17.56
0.0010433333333333377,0.1,-0.02,1.06,7.13,16.47,8.96
0.001046666666666671,0.1,-0.0,1.09,3.33,9.76,3.22
0.0010500000000000043,0.05,-0.01,1.06,3.77,1.79,0.72
0.0010533333333333375,0.11,-0.01,1.04,5.36,7.22,-1.98
0.0010566666666666708,0.06,-0.03,1.06,4.18,0.79,-0.26
0.001060000000000004,0.08,-0.02,0.97,9.07,10.67,-1.48
0.0010633333333333374,0.12,-0.0,0.98,13.97,8.85,0.55
0.0010666666666666706,0.13,-0.0,1.02,4.66,13.42,0.79
0.0010700000000000039,0.19,0.11,1.07,3.56,10.67,2.11
0.0010733333333333372,0.09,0.01,1.04,2.63,8.92,3.85
0.0010766666666666704,0.08,0.01,0.99,2.64,12.49,3.86
0.0010800000000000037,0.01,-0.05,1.02,1.3,11.47,1.95
0.001083333333333337,0.07,0.01,0.99,2.98,11.08,2.7
0.0010866666666666702,0.06,0.01,1.0,3.8,5.53,2.98
0.0010900000000000035,0.05,0.01,1.03,3.21,4.26,3.47
0.0010933333333333368,0.04,0.01,0.97,3.66,9.19,2.23
0.00109666666666667,-0.0,0.01,1.03,1.57,7.86,-0.58
0.0011000000000000033,0.02,0.0,1.0,1.68,13.3,-2.93
0.0011033333333333366,0.03,0.0,0.99,4.49,11.62,-2.78
0.0011066666666666699,0.02,-0.0,1.03,2.53,0.41,-1.69
0.0011100000000000031,0.05,0.01,0.99,5.6,10.58,2.37
0.0011133333333333364,0.01,0.01,1.02,2.95,5.3,-2.67
0.0011166666666666697,0.0,0.02,1.05,7.57,2.18,-2.41
0.001120000000000003,0.01,0.05,1.06,0.02,-3.28,-2.78
0.0011233333333333362,0.06,0.03,0.93,10.92,-3.27,-3.34
0.0011266666666666695,0.06,0.03,1.02,-1.42,1.5,-3.69
0.0011300000000000027,0.04,0.01,1.04,6.55,-4.75,-2.98
0.001133333333333336,0.06,0.1,0.96,4.26,-8.92,-4.55
0.0011366666666666693,0.03,0.03,1.0,7.4,-11.5,-4.52
0.0011400000000000026,0.05,-0.0,1.01,5.95,-10.41,-4.11
0.0011433333333333358,0.03,0.06,0.99,-2.05,10.05,-9.37
0.001146666666666669,0.05,0.05,1.04,3.68,-13.94,-4.99
0.0011500000000000024,0.11,0.07,1.08,-2.34,-10.37,-2.43
0.0011533333333333356,0.06,0.13,1.01,-6.11,-5.63,2.82
0.001156666666666669,0.07,0.06,1.07,-7.05,-6.43,1.44
0.0011600000000000022,0.0,0.02,1.09,-11.02,-20.81,-8.64
0.0011633333333333354,0.04,-0.0,1.03,-3.36,-16.69,-1.16
0.0011666666666666687,0.04,0.02,0.97,1.33,-20.44,-6.47
0.001170000000000002,0.05,0.01,0.96,9.02,-20.4,-7.02
0.0011733333333333353,0.06,0.02,0.99,12.21,-22.53,-7.1
0.0011766666666666685,0.04,0.05,1.06,11.19,-21.77,-7.24
0.0011800000000000018,0.09,0.03,1.07,6.15,-20.2,-2.29
0.001183333333333335,0.12,0.05,1.03,2.34,-8.73,-5.13
0.0011866666666666683,0.16,0.07,0.95,7.73,-9.85,-2.18
0.0011900000000000016,0.11,0.04,1.03,4.29,-6.99,-1.89
0.0011933333333333349,0.13,0.05,0.98,5.39,-6.95,-1.73
0.0011966666666666681,0.13,0.05,0.95,13.5,-5.98,-1.24
0.0012000000000000014,0.16,0.03,0.97,11.63,-2.52,-0.55
0.0012033333333333347,0.11,0.07,1.1,4.66,-3.71,0.06
0.001206666666666668,0.11,0.08,1.02,6.29,0.29,-0.4
0.0012100000000000012,0.08,0.05,1.04,4.78,1.22,-2.09
0.0012133333333333345,0.07,0.07,1.04,6.98,1.24,-3.07
0.0012166666666666678,0.12,0.05,1.02,7.77,3.5,-2.87
0.001220000000000001,0.14,0.06,1.01,8.31,5.92,-2.31
0.0012233333333333343,0.13,0.07,1.0,8.66,8.03,-0.46
0.0012266666666666676,0.12,0.07,1.06,3.42,9.05,-0.23
