time,accl_x,accl_y,accl_z,gyro_x,gyro_y,gyro_z
0.0,-0.05,-0.15,0.12,9.1,0.95,-3.42
3.3333333333333333e-06,-0.04,-0.17,0.09,11.89,17.16,-0.38
6.666666666666667e-06,-0.03,-0.2,0.16,10.32,18.4,2.06
9.999999999999999e-06,-0.12,-0.21,0.28,13.18,-2.49,6.79
1.3333333333333333e-05,-0.12,-0.24,0.2,21.91,-5.98,7.36
1.6666666666666667e-05,-0.11,-0.26,0.15,32.47,7.16,-0.15
2e-05,-0.12,-0.28,0.26,40.24,6.67,1.02
2.3333333333333336e-05,-0.12,-0.28,0.5,40.95,-5.97,-0.79
2.666666666666667e-05,-0.1,-0.27,0.58,41.94,-14.12,-4.78
3.0000000000000004e-05,-0.04,-0.25,0.55,46.75,-5.57,-3.95
3.3333333333333335e-05,-0.0,-0.28,0.62,52.9,-5.51,-7.68
3.6666666666666666e-05,0.01,-0.29,0.75,56.69,-12.52,-12.14
3.9999999999999996e-05,0.01,-0.27,0.92,53.53,-9.13,-20.26
4.333333333333333e-05,0.07,-0.2,1.03,43.71,2.38,-26.78
4.666666666666666e-05,0.08,-0.21,1.12,40.41,-2.12,-29.28
4.999999999999999e-05,0.12,-0.16,1.17,35.69,-10.99,-27.19
5.333333333333332e-05,0.2,-0.15,1.18,32.82,-15.51,-24.35
5.666666666666665e-05,0.23,-0.18,1.07,32.95,-18.78,-22.08
5.999999999999998e-05,0.24,-0.2,1.05,38.37,-22.98,-19.4
6.333333333333332e-05,0.25,-0.2,1.0,45.98,-22.9,-19.07
6.666666666666666e-05,0.3,-0.2,0.98,51.83,-15.48,-16.47
7e-05,0.29,-0.17,1.02,53.42,-7.21,-12.9
7.333333333333333e-05,0.3,-0.14,1.1,50.35,-3.02,-8.26
7.666666666666667e-05,0.23,-0.1,1.18,42.87,-3.94,-6.31
8e-05,0.19,-0.1,1.21,35.74,-6.46,-5.48
8.333333333333334e-05,0.19,-0.12,1.15,33.73,-3.79,-5.73
8.666666666666668e-05,0.2,-0.14,1.1,34.6,-1.48,-5.07
9.000000000000002e-05,0.2,-0.15,1.07,39.04,-0.38,-3.15
9.333333333333336e-05,0.18,-0.13,1.09,42.21,0.03,-1.54
9.66666666666667e-05,0.17,-0.1,1.16,38.76,0.08,-1.05
0.00010000000000000003,0.15,-0.08,1.2,33.02,0.31,-1.45
0.00010333333333333337,0.14,-0.08,1.24,25.22,-1.21,-3.24
0.00010666666666666671,0.14,-0.09,1.18,21.71,-3.27,-2.17
0.00011000000000000004,0.17,-0.1,1.13,23.24,-5.94,-0.26
0.00011333333333333338,0.15,-0.1,1.12,26.23,-10.6,1.19
0.00011666666666666672,0.18,-0.09,1.09,28.02,-10.46,2.41
0.00012000000000000006,0.16,-0.09,1.08,30.69,-12.69,1.92
0.0001233333333333334,0.17,-0.08,1.12,28.46,-15.45,2.52
0.00012666666666666672,0.19,-0.07,1.08,27.98,-10.76,0.73
0.00013000000000000004,0.2,-0.05,1.11,26.78,-4.7,2.06
0.00013333333333333337,0.19,-0.05,1.11,27.53,-5.54,3.68
0.0001366666666666667,0.16,-0.03,1.16,27.8,-18.61,6.46
0.00014000000000000001,0.17,-0.03,1.14,27.97,-31.16,8.4
0.00014333333333333334,0.18,-0.03,1.11,28.08,-34.06,9.74
0.00014666666666666666,0.2,-0.02,1.09,26.93,-34.44,8.99
0.00015,0.19,-0.0,1.14,22.98,-25.27,5.53
0.0001533333333333333,0.26,0.01,1.1,12.72,-7.15,2.47
0.00015666666666666663,0.27,0.02,1.1,10.29,1.69,3.54
0.00015999999999999996,0.24,0.01,1.11,8.79,-1.71,5.5
0.00016333333333333328,0.26,0.0,1.07,10.64,-0.89,8.27
0.0001666666666666666,0.23,0.0,1.07,10.7,-0.37,9.91
0.00016999999999999993,0.21,0.01,1.1,9.05,1.98,9.27
0.00017333333333333325,0.18,0.02,1.09,8.6,6.56,9.27
0.00017666666666666658,0.16,0.03,1.11,6.72,9.08,8.34
0.0001799999999999999,0.14,0.02,1.12,4.81,6.15,6.84
0.00018333333333333323,0.15,0.02,1.07,5.48,6.58,5.5
0.00018666666666666655,0.15,0.01,1.07,5.73,5.86,4.2
0.00018999999999999987,0.13,0.02,1.1,3.33,-0.52,3.74
0.0001933333333333332,0.16,0.02,1.06,3.53,0.17,3.27
0.00019666666666666652,0.15,0.02,1.06,2.58,-1.91,3.76
0.00019999999999999985,0.15,0.02,1.06,3.1,-3.92,3.44
0.00020333333333333317,0.17,0.03,1.04,3.91,-2.52,3.01
0.0002066666666666665,0.16,0.03,1.05,2.92,-1.77,2.4
0.00020999999999999982,0.16,0.03,1.05,1.21,0.05,0.98
0.00021333333333333314,0.16,0.03,1.03,-0.26,2.37,-0.02
0.00021666666666666647,0.15,0.02,1.0,-0.02,4.38,-1.4
0.0002199999999999998,0.16,0.02,0.99,0.72,2.0,-0.38
0.00022333333333333311,0.17,0.03,1.01,1.13,-3.11,0.52
0.00022666666666666644,0.17,0.03,1.01,1.47,-4.61,0.63
0.00022999999999999976,0.16,0.02,1.01,1.71,-4.58,-0.21
0.0002333333333333331,0.15,0.02,1.01,2.99,-7.27,-0.58
0.0002366666666666664,0.15,0.01,1.04,1.82,-12.64,-1.07
0.00023999999999999974,0.18,0.02,1.01,0.73,-13.54,-2.24
0.00024333333333333306,0.19,0.02,0.98,1.02,-10.87,-3.42
0.0002466666666666664,0.22,0.02,0.97,0.43,-5.6,-4.47
0.00024999999999999973,0.22,0.04,1.03,-2.29,-8.17,-3.65
0.00025333333333333306,0.23,0.05,1.03,-5.4,-0.9,-4.41
0.0002566666666666664,0.25,0.06,1.03,-9.24,7.57,-4.31
0.0002599999999999997,0.23,0.05,1.05,-15.37,6.98,-5.37
0.00026333333333333303,0.21,0.03,0.98,-11.37,5.44,-3.19
0.00026666666666666635,0.22,0.03,1.0,-10.09,2.44,-1.27
0.0002699999999999997,0.18,0.03,1.04,-14.24,-5.04,-2.67
0.000273333333333333,0.19,0.03,0.98,-14.6,1.89,-3.76
0.0002766666666666663,0.21,0.03,0.97,-15.86,8.0,-0.98
0.00027999999999999965,0.17,0.01,0.95,-12.53,3.18,-4.56
0.000283333333333333,0.2,0.01,0.94,-6.55,4.63,-2.26
0.0002866666666666663,0.19,-0.01,0.94,-2.02,3.02,-0.76
0.0002899999999999996,0.18,-0.02,0.97,0.12,0.27,-0.34
0.00029333333333333295,0.16,-0.02,0.95,2.46,-0.89,-1.19
0.00029666666666666627,0.17,-0.01,0.98,2.64,1.01,-2.61
0.0002999999999999996,0.17,0.0,0.98,1.74,5.76,-3.1
0.0003033333333333329,0.15,0.0,1.01,-1.27,7.42,-4.12
0.00030666666666666624,0.18,0.01,1.03,-3.27,5.21,-3.68
0.00030999999999999957,0.16,-0.0,1.0,-0.61,3.1,-2.35
0.0003133333333333329,0.17,-0.0,0.99,0.69,3.1,-3.31
0.0003166666666666662,0.16,-0.01,1.0,1.94,1.65,-4.29
0.00031999999999999954,0.16,-0.01,0.97,4.29,-1.37,-5.89
0.00032333333333333286,0.16,-0.01,0.99,4.76,-4.37,-6.96
0.0003266666666666662,0.17,0.01,1.0,4.76,-3.5,-5.11
0.0003299999999999995,0.2,0.01,0.97,5.94,4.06,-5.27
0.00033333333333333283,0.2,0.01,1.01,4.84,3.56,-4.7
0.00033666666666666616,0.18,0.02,1.06,1.73,2.38,-4.14
0.0003399999999999995,0.19,0.03,1.07,-3.51,8.26,-6.31
0.0003433333333333328,0.19,0.03,1.02,-5.62,13.27,-7.48
0.00034666666666666613,0.16,0.02,1.01,-4.47,12.43,-4.69
0.00034999999999999945,0.18,0.01,1.0,-2.34,12.55,-3.65
0.0003533333333333328,0.19,0.01,0.98,-0.99,13.18,-3.98
0.0003566666666666661,0.16,-0.0,0.99,0.29,11.13,-4.96
0.0003599999999999994,0.17,0.01,1.02,0.79,6.82,-5.74
0.00036333333333333275,0.17,0.02,1.0,0.84,5.54,-6.08
0.0003666666666666661,0.17,0.03,1.0,1.39,6.0,-3.48
0.0003699999999999994,0.17,0.03,1.03,0.82,2.14,-0.49
0.0003733333333333327,0.15,0.02,1.04,-1.48,-3.54,1.08
0.00037666666666666605,0.15,0.02,1.02,-2.7,-2.98,-0.41
0.00037999999999999937,0.15,0.0,1.02,-3.98,-3.53,-1.83
0.0003833333333333327,0.15,-0.0,0.99,-4.44,-1.91,-4.06
0.000386666666666666,0.17,-0.01,0.96,-2.03,3.57,-4.66
0.00038999999999999934,0.2,-0.01,0.97,-1.48,8.78,-3.5
0.00039333333333333267,0.19,0.0,0.99,0.21,11.15,-2.31
0.000396666666666666,0.16,-0.0,1.03,-0.87,12.11,-3.13
0.0003999999999999993,0.17,-0.0,0.99,0.29,15.34,-2.21
0.00040333333333333264,0.16,0.0,1.04,0.49,13.28,-1.11
0.00040666666666666596,0.17,-0.0,1.03,0.79,14.69,-1.08
0.0004099999999999993,0.16,-0.0,1.02,2.49,19.08,-0.44
0.0004133333333333326,0.14,-0.01,1.05,4.12,16.4,0.21
0.00041666666666666593,0.13,-0.01,1.02,5.25,14.27,0.35
0.00041999999999999926,0.12,-0.01,0.99,7.76,13.91,-0.81
0.0004233333333333326,0.11,0.01,1.0,7.45,11.94,0.73
0.0004266666666666659,0.08,0.02,1.1,5.8,1.44,0.66
0.00042999999999999923,0.07,0.03,1.1,-1.13,-4.78,-1.54
0.00043333333333333255,0.1,0.02,1.06,-0.47,-6.93,-1.34
0.0004366666666666659,0.04,0.0,1.11,-0.64,-27.22,-2.53
0.0004399999999999992,0.1,0.01,1.04,-11.71,-41.94,-5.82
0.0004433333333333325,0.16,-0.0,0.93,-4.93,-28.92,-8.89
0.00044666666666666585,0.18,-0.01,0.9,1.16,-19.27,-9.15
0.0004499999999999992,0.21,0.0,0.92,9.69,-14.37,-5.79
0.0004533333333333325,0.26,0.03,0.93,14.5,-0.18,-0.84
0.0004566666666666658,0.19,0.02,0.99,15.86,6.23,0.43
0.00045999999999999915,0.13,0.03,1.06,10.85,6.69,-1.45
0.00046333333333333247,0.16,0.03,1.05,7.5,7.71,-2.12
0.0004666666666666658,0.15,0.04,1.04,6.09,8.69,-2.89
0.0004699999999999991,0.16,0.03,1.02,6.52,5.66,-1.28
0.00047333333333333244,0.15,0.03,1.02,6.46,4.63,-1.59
0.00047666666666666577,0.15,0.04,1.06,4.6,3.88,-1.11
0.0004799999999999991,0.15,0.04,1.02,3.69,6.5,-3.07
0.0004833333333333324,0.13,0.03,1.02,5.22,3.76,-1.66
0.00048666666666666574,0.13,0.04,1.05,5.28,-2.69,0.56
0.0004899999999999991,0.12,0.04,1.08,1.22,-6.9,0.08
0.0004933333333333325,0.11,0.05,1.1,-3.54,-10.08,-1.19
0.0004966666666666659,0.11,0.04,1.06,-5.69,-13.51,-2.35
0.0004999999999999993,0.12,0.03,1.05,-6.18,-18.35,-2.98
0.0005033333333333326,0.13,0.02,1.06,-6.32,-21.85,-3.3
0.000506666666666666,0.12,0.01,1.06,-7.65,-26.32,-6.79
0.0005099999999999994,0.13,0.02,1.07,-9.68,-34.18,-7.91
0.0005133333333333328,0.15,0.02,1.07,-12.84,-38.72,-8.14
0.0005166666666666661,0.2,0.03,1.02,-13.59,-30.55,-7.39
0.0005199999999999995,0.24,0.03,0.97,-13.27,-18.35,-6.52
0.0005233333333333329,0.23,0.01,0.95,-11.6,-5.91,-4.32
0.0005266666666666663,0.24,0.01,0.92,-7.34,4.18,-3.22
0.0005299999999999997,0.25,0.03,0.91,0.2,11.4,-0.92
0.000533333333333333,0.2,0.02,0.99,3.3,8.64,0.08
0.0005366666666666664,0.2,0.04,0.99,4.55,8.29,0.11
0.0005399999999999998,0.13,0.02,1.05,0.78,-4.41,-3.36
0.0005433333333333332,0.13,0.02,1.03,-2.63,-12.64,-6.34
0.0005466666666666665,0.22,0.03,0.94,-0.96,-4.27,-7.02
0.0005499999999999999,0.21,0.02,0.96,-0.85,-6.46,-6.43
0.0005533333333333333,0.21,0.01,0.95,1.71,-9.21,-5.21
0.0005566666666666667,0.22,0.02,0.94,3.91,-5.66,-4.67
0.0005600000000000001,0.21,0.01,0.94,5.11,-4.87,-4.82
0.0005633333333333334,0.22,0.01,0.94,7.65,-3.08,-4.21
0.0005666666666666668,0.22,0.02,0.97,9.33,-3.27,-3.27
0.0005700000000000002,0.22,0.03,0.99,8.89,-2.61,-3.13
0.0005733333333333336,0.2,0.03,1.02,7.37,-2.96,-3.4
0.000576666666666667,0.22,0.03,1.01,6.58,-1.02,-3.21
0.0005800000000000003,0.21,0.03,1.01,6.53,0.79,-3.57
0.0005833333333333337,0.21,0.03,1.04,4.84,-1.59,-3.73
0.0005866666666666671,0.21,0.03,1.04,4.23,-3.27,-2.99
0.0005900000000000005,0.22,0.03,1.06,3.51,-6.85,-2.27
0.0005933333333333338,0.2,0.03,1.07,1.25,-11.02,-2.35
0.0005966666666666672,0.19,0.03,1.12,-4.08,-17.69,-2.75
0.0006000000000000006,0.19,0.02,1.13,-10.05,-27.15,-3.27
0.000603333333333334,0.17,0.03,1.17,-16.95,-41.92,-3.91
0.0006066666666666674,0.2,0.04,1.14,-19.02,-55.28,-1.62
0.0006100000000000007,0.28,0.03,1.0,-20.26,-38.35,-0.6
0.0006133333333333341,0.3,0.01,0.93,-16.9,-15.04,-2.56
0.0006166666666666675,0.27,-0.01,0.92,-9.8,-2.31,-2.95
0.0006200000000000009,0.24,-0.03,0.92,-1.91,-1.89,-3.68
0.0006233333333333342,0.25,-0.02,0.92,2.81,5.56,-5.97
0.0006266666666666676,0.26,0.01,0.95,2.46,11.97,-7.39
0.000630000000000001,0.26,0.01,0.99,1.94,7.94,-6.24
0.0006333333333333344,0.27,0.03,1.01,1.91,1.66,-3.51
0.0006366666666666678,0.27,0.03,0.96,3.05,2.27,-2.14
0.0006400000000000011,0.29,0.03,0.97,3.01,5.59,-1.05
0.0006433333333333345,0.24,0.03,1.0,2.58,3.39,-0.63
0.0006466666666666679,0.27,0.03,0.99,2.93,5.62,-0.95
0.0006500000000000013,0.23,0.03,1.0,1.83,5.25,-1.44
0.0006533333333333346,0.24,0.03,0.99,1.6,4.5,-1.63
0.000656666666666668,0.24,0.02,1.0,2.32,2.38,-0.43
0.0006600000000000014,0.25,0.03,0.97,3.05,3.63,-0.56
0.0006633333333333348,0.23,0.02,0.99,3.68,4.95,-1.08
0.0006666666666666682,0.23,0.02,1.02,2.61,3.07,-1.31
0.0006700000000000015,0.22,0.04,1.06,-1.21,-0.03,-1.45
0.0006733333333333349,0.24,0.04,1.02,-2.75,2.43,-1.91
0.0006766666666666683,0.22,0.03,1.0,-3.3,4.75,-3.62
0.0006800000000000017,0.23,0.03,0.97,-1.56,3.8,-2.66
0.000683333333333335,0.22,0.02,0.97,0.24,3.79,-2.23
0.0006866666666666684,0.21,0.02,1.0,0.11,1.79,-2.79
0.0006900000000000018,0.22,0.03,0.98,0.23,2.09,-3.71
0.0006933333333333352,0.22,0.02,0.97,-0.08,4.69,-5.27
0.0006966666666666686,0.23,0.02,0.98,-0.95,4.46,-5.62
0.0007000000000000019,0.21,0.03,1.0,-2.2,-0.56,-5.44
0.0007033333333333353,0.22,0.03,0.97,-1.54,-3.08,-5.04
0.0007066666666666687,0.22,0.03,0.95,0.93,-4.73,-5.28
0.0007100000000000021,0.23,0.02,0.95,2.61,-5.54,-5.44
0.0007133333333333355,0.24,0.03,0.94,2.84,-2.6,-5.94
0.0007166666666666688,0.24,0.03,0.98,1.42,-3.39,-5.74
0.0007200000000000022,0.23,0.04,0.97,1.82,-3.59,-6.21
0.0007233333333333356,0.25,0.03,0.96,2.93,0.12,-6.75
0.000726666666666669,0.27,0.03,0.95,4.66,3.21,-5.88
0.0007300000000000023,0.27,0.03,0.96,6.56,2.11,-4.35
0.0007333333333333357,0.23,0.04,1.02,6.06,-2.21,-3.68
0.0007366666666666691,0.24,0.04,1.0,6.17,-1.69,-4.31
0.0007400000000000025,0.23,0.03,1.01,4.56,-1.83,-5.53
0.0007433333333333359,0.22,0.03,0.99,4.38,-2.08,-6.84
0.0007466666666666692,0.25,0.04,0.98,5.62,0.31,-6.38
0.0007500000000000026,0.25,0.03,0.97,8.38,-1.22,-5.73
0.000753333333333336,0.26,0.04,0.99,9.56,-0.12,-5.01
0.0007566666666666694,0.25,0.05,1.01,8.92,2.4,-5.21
0.0007600000000000028,0.25,0.05,1.02,7.15,4.63,-4.72
0.0007633333333333361,0.18,0.05,1.03,6.87,4.47,-5.6
0.0007666666666666695,0.24,0.05,0.99,7.4,12.5,-7.36
0.0007700000000000029,0.22,0.04,1.02,8.05,10.58,-8.06
0.0007733333333333363,0.2,0.05,1.04,7.73,9.53,-7.02
0.0007766666666666696,0.22,0.06,1.04,6.85,4.66,-7.79
0.000780000000000003,0.16,0.04,1.04,5.86,-4.85,-9.86
0.0007833333333333364,0.2,0.06,1.03,3.39,-8.58,-9.48
0.0007866666666666698,0.23,0.06,1.0,4.52,-7.74,-9.13
0.0007900000000000032,0.22,0.05,1.0,4.35,-11.95,-8.85
0.0007933333333333365,0.26,0.05,0.97,4.98,-9.11,-8.21
0.0007966666666666699,0.27,0.06,0.97,4.95,-5.42,-7.44
0.0008000000000000033,0.27,0.06,0.96,5.88,-6.15,-6.61
0.0008033333333333367,0.29,0.05,0.94,8.2,-4.2,-4.78
0.00080666666666667,0.29,0.06,0.95,10.18,-2.53,-3.21
0.0008100000000000034,0.27,0.07,0.98,10.7,-2.75,-2.09
0.0008133333333333368,0.26,0.07,0.99,10.73,-0.32,-1.47
0.0008166666666666702,0.27,0.08,0.99,10.23,1.89,-0.72
0.0008200000000000036,0.26,0.08,0.97,11.97,3.04,0.67
0.0008233333333333369,0.25,0.08,1.0,13.31,-0.18,1.65
0.0008266666666666703,0.24,0.1,1.02,12.18,3.3,1.98
0.0008300000000000037,0.23,0.1,1.06,7.73,2.7,0.81
0.0008333333333333371,0.22,0.1,1.05,3.82,2.46,0.14
0.0008366666666666705,0.22,0.1,1.03,3.16,3.31,-1.36
0.0008400000000000038,0.22,0.09,1.01,3.83,1.63,-2.37
0.0008433333333333372,0.21,0.08,1.0,6.26,-1.63,-3.56
0.0008466666666666706,0.22,0.08,0.98,6.23,-2.72,-4.78
0.000850000000000004,0.24,0.1,0.98,4.96,-0.41,-4.27
0.0008533333333333373,0.23,0.1,0.99,3.19,0.32,-4.64
0.0008566666666666707,0.24,0.12,0.99,1.33,-0.06,-3.54
0.0008600000000000041,0.26,0.11,0.96,1.74,6.67,1.3
0.0008633333333333375,0.25,0.11,0.93,1.39,11.25,3.15
0.0008666666666666709,0.22,0.1,0.92,4.98,13.01,2.2
0.0008700000000000042,0.2,0.09,0.93,6.32,11.91,0.17
0.0008733333333333376,0.21,0.11,0.94,7.82,10.56,-0.87
0.000876666666666671,0.2,0.1,0.97,8.99,4.64,-2.21
0.0008800000000000044,0.19,0.11,1.0,8.52,-2.08,-3.62
0.0008833333333333377,0.21,0.11,1.0,8.17,-0.61,-5.31
0.0008866666666666711,0.19,0.12,1.01,7.83,0.5,-6.08
0.0008900000000000045,0.21,0.12,1.0,6.35,1.56,-5.85
0.0008933333333333379,0.2,0.11,0.98,8.23,0.32,-7.25
0.0008966666666666713,0.21,0.12,1.0,8.35,-4.89,-6.85
0.0009000000000000046,0.23,0.12,0.98,10.31,-7.18,-6.2
0.000903333333333338,0.25,0.13,0.98,10.61,-6.7,-6.05
0.0009066666666666714,0.26,0.12,0.98,11.07,-3.63,-5.31
0.0009100000000000048,0.26,0.12,0.98,11.13,0.18,-4.69
0.0009133333333333382,0.26,0.12,0.99,10.46,2.7,-3.97
0.0009166666666666715,0.26,0.12,0.97,11.08,6.78,-2.61
0.0009200000000000049,0.24,0.13,0.99,10.76,6.46,-2.6
0.0009233333333333383,0.25,0.13,0.99,11.42,9.19,-1.18
0.0009266666666666717,0.24,0.14,1.0,11.45,12.93,-0.9
0.000930000000000005,0.22,0.13,1.02,9.6,10.9,-0.61
0.0009333333333333384,0.22,0.14,1.02,10.52,8.26,-0.26
0.0009366666666666718,0.21,0.14,1.04,8.38,6.14,-0.12
0.0009400000000000052,0.2,0.15,1.04,7.44,3.91,-0.12
0.0009433333333333386,0.2,0.14,1.04,6.02,1.36,-0.41
0.0009466666666666719,0.19,0.15,1.03,7.04,2.44,-1.33
0.0009500000000000053,0.19,0.15,1.04,6.31,3.16,-2.56
0.0009533333333333387,0.2,0.15,1.03,5.66,0.93,-3.27
0.0009566666666666721,0.2,0.15,1.02,6.02,1.6,-3.47
0.0009600000000000054,0.22,0.15,1.03,5.24,1.39,-2.92
0.0009633333333333388,0.2,0.16,1.02,3.48,1.45,-4.56
0.0009666666666666722,0.22,0.16,0.99,3.04,3.85,-4.23
0.0009700000000000056,0.23,0.16,0.98,3.15,4.02,-2.37
0.000973333333333339,0.21,0.16,0.99,3.92,1.39,-1.27
0.0009766666666666723,0.22,0.16,0.99,4.29,1.74,-0.7
0.0009800000000000056,0.21,0.16,0.98,3.85,3.59,-0.78
0.0009833333333333389,0.19,0.15,0.96,3.82,4.93,-2.06
0.0009866666666666721,0.2,0.16,0.96,4.14,4.75,-1.66
0.0009900000000000054,0.18,0.16,0.98,2.84,-0.09,-2.09
0.0009933333333333387,0.21,0.17,0.97,1.94,1.76,-1.57
0.000996666666666672,0.2,0.16,0.96,1.57,5.44,-2.06
0.0010000000000000052,0.2,0.16,0.96,2.87,9.8,-2.29
0.0010033333333333385,0.17,0.17,0.99,2.89,8.84,-3.39
0.0010066666666666718,0.17,0.17,0.99,3.44,7.89,-3.42
0.001010000000000005,0.17,0.17,1.01,2.29,5.66,-3.8
0.0010133333333333383,0.16,0.18,1.0,1.08,0.99,-5.01
0.0010166666666666716,0.18,0.18,1.0,0.27,-0.6,-4.47
0.0010200000000000048,0.17,0.17,0.99,0.95,-0.32,-4.99
0.0010233333333333381,0.19,0.18,0.99,1.05,0.64,-4.29
0.0010266666666666714,0.19,0.18,1.0,2.4,-0.17,-5.4
0.0010300000000000047,0.2,0.19,1.0,2.27,1.22,-5.44
0.001033333333333338,0.21,0.2,1.02,0.52,1.98,-4.73
0.0010366666666666712,0.19,0.19,1.05,-2.87,-0.73,-3.02
0.0010400000000000045,0.2,0.18,0.98,-2.06,2.21,-2.55
0.0010433333333333377,0.19,0.17,0.96,-0.43,7.31,-3.5
0.001046666666666671,0.2,0.16,0.94,3.02,9.6,-2.6
0.0010500000000000043,0.2,0.15,0.91,8.11,11.28,-0.17
0.0010533333333333375,0.19,0.15,0.94,10.32,15.68,-1.08
0.0010566666666666708,0.2,0.17,0.97,6.52,25.89,3.13
0.001060000000000004,0.19,0.19,0.99,3.02,34.44,4.4
0.0010633333333333374,0.12,0.19,1.01,0.98,33.86,3.53
0.0010666666666666706,0.09,0.17,1.01,0.7,29.63,1.4
0.0010700000000000039,0.1,0.18,1.0,1.79,22.5,-0.08
0.0010733333333333372,0.09,0.17,1.0,1.94,14.31,-1.68
0.0010766666666666704,0.12,0.19,1.0,2.11,8.92,-2.03
0.0010800000000000037,0.13,0.2,1.02,1.25,5.11,-1.92
0.001083333333333337,0.13,0.2,0.99,2.17,4.09,-2.35
0.0010866666666666702,0.14,0.2,1.02,1.28,0.46,-2.61
0.0010900000000000035,0.15,0.2,1.05,-0.35,-4.9,-3.25
0.0010933333333333368,0.17,0.21,1.07,-5.86,-3.85,-3.22
0.00109666666666667,0.17,0.21,1.03,-7.8,1.8,-4.66
0.0011000000000000033,0.18,0.21,1.0,-5.92,5.73,-3.27
0.0011033333333333366,0.16,0.19,1.01,-3.98,4.64,-2.67
0.0011066666666666699,0.17,0.19,1.0,-2.18,5.97,-1.33
0.0011100000000000031,0.16,0.18,1.02,-2.56,7.85,-0.06
0.0011133333333333364,0.15,0.19,1.02,-2.7,7.85,0.18
0.0011166666666666697,0.13,0.19,1.02,-2.76,6.67,1.25
0.001120000000000003,0.12,0.18,1.01,-3.48,3.77,1.8
0.0011233333333333362,0.09,0.17,1.06,-5.59,-2.53,0.99
0.0011266666666666695,0.1,0.18,1.03,-7.51,-1.08,-0.84
0.0011300000000000027,0.11,0.18,1.0,-7.36,1.28,-3.34
0.001133333333333336,0.11,0.18,1.02,-7.56,-0.03,-4.46
0.0011366666666666693,0.11,0.18,1.01,-7.8,0.35,-4.55
0.0011400000000000026,0.12,0.17,0.99,-8.17,0.64,-4.23
0.0011433333333333358,0.12,0.17,1.02,-9.5,-1.82,-4.44
0.001146666666666669,0.13,0.17,1.01,-10.79,-5.8,-3.02
0.0011500000000000024,0.15,0.13,0.94,-8.32,3.21,-2.72
0.0011533333333333356,0.15,0.16,1.0,-8.38,6.61,-3.45
0.001156666666666669,0.1,0.17,1.01,-7.28,-2.26,-4.64
0.0011600000000000022,0.14,0.17,1.0,-8.46,1.71,-4.29
0.0011633333333333354,0.14,0.17,1.03,-12.73,8.79,-3.68
0.0011666666666666687,0.12,0.17,1.05,-17.34,11.73,-4.53
0.001170000000000002,0.14,0.19,1.06,-21.02,17.77,-4.44
0.0011733333333333353,0.13,0.17,1.02,-22.5,19.82,-3.77
0.0011766666666666685,0.12,0.15,0.98,-21.8,19.22,-3.02
0.0011800000000000018,0.09,0.13,0.99,-20.63,10.89,-2.61
0.001183333333333335,0.1,0.12,0.95,-18.98,6.41,-3.22
0.0011866666666666683,0.06,0.11,0.94,-11.77,7.48,-5.19
0.0011900000000000016,0.09,0.12,0.96,-9.33,7.21,-5.98
0.0011933333333333349,0.11,0.11,0.95,-6.09,5.77,-4.32
0.0011966666666666681,0.09,0.11,0.92,0.4,4.73,-5.24
0.0012000000000000014,0.08,0.11,0.96,-0.79,9.34,-7.45
0.0012033333333333347,0.09,0.13,0.98,-1.5,11.47,-8.89
0.001206666666666668,0.1,0.13,0.98,-5.68,15.8,-3.91
0.0012100000000000012,0.05,0.13,1.02,0.52,5.79,-5.79
0.0012133333333333345,0.12,0.16,1.02,-3.95,1.88,-2.9
0.0012166666666666678,0.11,0.14,0.99,-4.55,9.18,-1.04
0.001220000000000001,0.12,0.12,0.99,-3.86,13.91,0.32
0.0012233333333333343,0.12,0.12,0.96,-1.85,15.27,1.27
0.0012266666666666676,0.11,0.12,0.97,1.15,16.32,2.26
