time,accl_x,accl_y,accl_z,gyro_x,gyro_y,gyro_z
0.0,0.05,0.06,1.0,-1.68,-2.66,3.05
3.3333333333333333e-06,0.05,0.05,1.02,-2.43,0.76,3.21
6.666666666666667e-06,0.08,0.05,1.02,-5.34,5.68,4.64
9.999999999999999e-06,0.07,0.06,1.01,-6.73,4.9,7.01
1.3333333333333333e-05,0.06,0.07,0.99,-5.79,0.08,7.08
1.6666666666666667e-05,0.05,0.07,0.98,-3.33,-1.22,7.19
2e-05,0.05,0.08,0.99,-0.92,-3.74,6.84
2.3333333333333336e-05,0.05,0.08,1.01,0.38,-2.64,6.14
2.666666666666667e-05,0.05,0.07,1.02,0.24,-2.26,5.63
3.0000000000000004e-05,0.02,0.07,1.03,-1.66,0.12,3.53
3.3333333333333335e-05,0.02,0.07,1.02,-2.2,0.11,2.52
3.6666666666666666e-05,0.03,0.07,1.01,-2.53,-2.12,1.83
3.9999999999999996e-05,0.05,0.07,1.0,-1.42,-4.21,2.46
4.333333333333333e-05,0.04,0.07,1.0,-1.4,-7.07,2.02
4.666666666666666e-05,0.06,0.06,1.0,-1.34,-9.88,2.26
4.999999999999999e-05,0.07,0.06,0.99,-1.88,-10.38,2.55
5.333333333333332e-05,0.04,0.06,0.99,-1.07,-5.22,1.51
5.666666666666665e-05,0.05,0.04,1.0,0.58,-0.14,-0.37
5.999999999999998e-05,0.04,0.05,1.02,-0.11,0.6,-2.9
6.333333333333332e-05,0.04,0.05,1.01,0.17,2.61,-4.89
6.666666666666666e-05,0.07,0.06,1.02,0.78,4.89,-4.31
7e-05,0.09,0.06,1.03,-0.7,1.44,-2.31
7.333333333333333e-05,0.06,0.06,1.02,-1.34,-3.08,-2.69
7.666666666666667e-05,0.07,0.07,1.01,1.07,-4.89,-1.92
8e-05,0.1,0.05,1.03,-0.09,-2.43,1.3
8.333333333333334e-05,0.07,0.05,1.05,-1.54,-5.62,2.06
8.666666666666668e-05,0.05,0.05,1.02,-1.22,-5.1,0.98
9.000000000000002e-05,0.05,0.05,1.03,-1.63,-2.47,0.31
9.333333333333336e-05,0.05,0.04,1.02,-2.2,-0.6,-1.45
9.66666666666667e-05,0.05,0.04,1.01,-1.05,1.68,-3.04
0.00010000000000000003,0.08,0.04,1.01,0.81,3.88,-2.24
0.00010333333333333337,0.08,0.05,1.0,1.07,2.64,-1.85
0.00010666666666666671,0.05,0.05,1.01,1.65,5.22,-1.45
0.00011000000000000004,0.03,0.06,1.04,1.68,3.71,-5.47
0.00011333333333333338,0.04,0.06,1.03,1.68,7.89,-7.48
0.00011666666666666672,0.05,0.05,1.06,-0.56,10.34,-8.84
0.00012000000000000006,0.06,0.07,1.05,-0.37,9.86,-8.41
0.0001233333333333334,0.07,0.05,1.03,-0.75,6.2,-6.44
0.00012666666666666672,0.09,0.04,1.05,-2.23,0.53,-3.42
0.00013000000000000004,0.09,0.05,1.04,-2.55,-5.91,-0.63
0.00013333333333333337,0.08,0.04,1.02,-3.65,-7.8,1.4
0.0001366666666666667,0.07,0.03,1.02,-3.8,-7.76,0.92
0.00014000000000000001,0.06,0.03,1.0,-2.24,-3.21,0.03
0.00014333333333333334,0.06,0.03,1.01,-2.24,3.21,-1.05
0.00014666666666666666,0.04,0.02,1.02,-2.08,6.61,-3.5
0.00015,0.05,0.03,1.02,-1.3,6.2,-3.51
0.0001533333333333333,0.04,0.02,1.02,-2.12,4.5,-3.4
0.00015666666666666663,0.06,0.02,1.02,-2.27,1.5,-2.55
0.00015999999999999996,0.04,0.03,1.01,-2.69,-2.03,-1.34
0.00016333333333333328,0.04,0.03,1.03,-2.31,-6.08,-1.18
0.0001666666666666666,0.05,0.03,1.02,-3.08,-6.5,-0.58
0.00016999999999999993,0.06,0.01,1.01,-3.15,-4.92,-1.25
0.00017333333333333325,0.05,0.02,1.0,-2.05,-0.43,-2.76
0.00017666666666666658,0.05,0.01,1.01,-1.33,3.33,-2.87
0.0001799999999999999,0.06,0.01,1.01,0.63,4.02,-3.37
0.00018333333333333323,0.08,0.01,1.01,1.85,2.87,-2.2
0.00018666666666666655,0.08,0.01,1.01,1.8,1.18,-0.89
0.00018999999999999987,0.07,0.01,1.04,1.04,-1.71,-0.03
0.0001933333333333332,0.06,0.01,1.05,-0.05,-2.17,0.05
0.00019666666666666652,0.05,0.01,1.04,-1.74,-0.75,-0.93
0.00019999999999999985,0.04,0.01,1.03,-3.19,4.11,-4.26
0.00020333333333333317,0.05,0.02,1.02,-1.71,8.66,-5.34
0.0002066666666666665,0.06,0.02,1.04,-1.73,11.22,-5.83
0.00020999999999999982,0.06,0.02,1.05,-0.58,8.85,-4.46
0.00021333333333333314,0.08,0.03,1.05,-3.08,4.85,-1.94
0.00021666666666666647,0.07,0.02,1.04,-2.2,-6.08,0.79
0.0002199999999999998,0.13,0.03,1.05,-3.89,-10.03,6.03
0.00022333333333333311,0.11,0.02,1.02,-5.01,-11.59,9.6
0.00022666666666666644,0.07,0.02,1.0,-4.7,-10.17,8.43
0.00022999999999999976,0.05,0.02,1.0,-4.11,-3.01,5.34
0.0002333333333333331,0.05,0.01,0.99,-2.06,4.02,3.37
0.0002366666666666664,0.05,0.01,0.99,-1.04,6.05,2.47
0.00023999999999999974,0.07,0.01,1.0,-0.31,3.44,3.4
0.00024333333333333306,0.08,0.02,1.01,-0.17,0.14,5.68
0.0002466666666666664,0.07,0.02,1.02,-0.24,-4.73,7.88
0.00024999999999999973,0.07,0.02,1.03,-1.37,-8.18,8.72
0.00025333333333333306,0.06,0.02,1.05,-3.16,-11.05,8.56
0.0002566666666666664,0.03,0.02,1.03,-4.12,-9.77,6.02
0.0002599999999999997,0.05,0.02,1.0,-2.82,-4.63,4.47
0.00026333333333333303,0.04,0.02,1.0,-1.8,-2.72,3.24
0.00026666666666666635,0.04,0.02,1.01,-1.13,-1.31,2.52
0.0002699999999999997,0.07,0.03,1.01,-1.4,-0.69,3.4
0.000273333333333333,0.08,0.03,1.0,-0.9,-3.15,4.17
0.0002766666666666663,0.07,0.03,1.01,-0.89,-2.95,4.14
0.00027999999999999965,0.08,0.02,1.03,-2.26,-2.43,6.0
0.000283333333333333,0.07,0.03,1.02,-2.02,-5.31,6.12
0.0002866666666666663,0.07,0.04,1.0,-0.4,-4.11,6.02
0.0002899999999999996,0.08,0.03,1.01,-0.38,-2.66,7.1
0.00029333333333333295,0.08,0.01,1.01,-0.64,-5.42,8.79
0.00029666666666666627,0.06,0.01,1.0,-0.99,-12.02,10.02
0.0002999999999999996,0.04,-0.0,0.97,-0.84,-13.05,9.34
0.0003033333333333329,0.04,0.02,0.95,2.93,-8.12,7.01
0.00030666666666666624,0.04,0.02,0.97,5.22,-1.21,3.83
0.00030999999999999957,0.07,0.03,1.0,5.89,5.13,2.73
0.0003133333333333329,0.07,0.03,1.05,5.21,5.68,1.57
0.0003166666666666662,0.1,0.04,1.05,4.34,2.69,1.82
0.00031999999999999954,0.11,0.04,1.05,3.05,-0.99,3.66
0.00032333333333333286,0.1,0.03,1.08,0.27,-5.73,5.37
0.0003266666666666662,0.1,0.03,1.07,-1.57,-8.84,6.21
0.0003299999999999995,0.08,0.03,1.05,-2.6,-8.99,5.59
0.00033333333333333283,0.07,0.03,1.01,-3.71,-2.95,3.45
0.00033666666666666616,0.03,0.02,0.99,-1.97,0.15,-0.41
0.0003399999999999995,0.05,0.03,0.95,1.97,5.63,-3.13
0.0003433333333333328,0.07,0.04,0.96,8.15,7.53,-4.15
0.00034666666666666613,0.06,0.03,0.98,5.31,9.24,-5.21
0.00034999999999999945,0.07,0.03,1.0,5.39,8.64,-4.76
0.0003533333333333328,0.05,0.03,1.01,4.31,5.74,-4.52
0.0003566666666666661,0.05,0.03,1.01,3.97,2.6,-4.67
0.0003599999999999994,0.07,0.04,1.02,3.59,-0.26,-3.92
0.00036333333333333275,0.1,0.04,1.03,3.98,-2.23,-1.28
0.0003666666666666661,0.11,0.04,1.03,3.57,-1.86,0.15
0.0003699999999999994,0.1,0.05,1.06,2.75,0.63,0.81
0.0003733333333333327,0.09,0.04,1.07,1.18,1.25,1.53
0.00037666666666666605,0.08,0.03,1.06,1.01,1.22,1.15
0.00037999999999999937,0.06,0.04,1.07,-0.6,-0.89,0.73
0.0003833333333333327,0.08,0.04,1.05,-1.15,-0.52,1.08
0.000386666666666666,0.07,0.04,1.05,-0.08,-0.84,1.77
0.00038999999999999934,0.07,0.02,1.04,-0.79,-3.05,1.88
0.00039333333333333267,0.06,0.03,1.03,-1.68,-2.32,1.65
0.000396666666666666,0.07,0.04,1.03,-1.11,0.32,0.2
0.0003999999999999993,0.07,0.03,1.01,0.08,4.58,-1.53
0.00040333333333333264,0.09,0.04,1.0,0.82,6.64,-1.56
0.00040666666666666596,0.08,0.04,1.02,0.53,4.78,-1.02
0.0004099999999999993,0.08,0.04,1.02,-0.4,1.88,-0.79
0.0004133333333333326,0.07,0.03,1.01,-2.56,0.05,-0.75
0.00041666666666666593,0.08,0.03,0.99,-3.73,6.98,-2.21
0.00041999999999999926,0.08,0.04,0.96,-0.82,11.5,-1.6
0.0004233333333333326,0.02,0.03,0.95,4.63,9.76,-6.14
0.0004266666666666659,0.02,0.03,0.95,9.24,7.83,-10.0
0.00042999999999999923,0.05,0.03,0.97,13.39,6.93,-9.83
0.00043333333333333255,0.08,0.02,1.01,12.24,6.34,-6.23
0.0004366666666666659,0.08,0.02,1.02,9.54,0.89,-4.43
0.0004399999999999992,0.09,0.02,1.0,8.26,-4.53,-0.72
0.0004433333333333325,0.07,0.03,1.0,6.6,-8.84,-0.44
0.00044666666666666585,0.02,0.03,1.01,6.93,-10.41,-3.39
0.0004499999999999992,0.04,0.04,0.98,9.36,-5.47,-5.18
0.0004533333333333325,0.03,0.05,1.01,9.37,-2.15,-7.36
0.0004566666666666658,0.06,0.06,1.0,11.02,4.03,-6.5
0.00045999999999999915,0.06,0.06,1.02,12.08,2.66,-5.88
0.00046333333333333247,0.08,0.06,1.05,10.4,0.23,-2.9
0.0004666666666666658,0.06,0.07,1.08,7.34,-6.61,-1.66
0.0004699999999999991,0.08,0.06,1.09,5.1,-7.02,0.6
0.00047333333333333244,0.05,0.07,1.07,1.24,-7.11,1.37
0.00047666666666666577,0.05,0.06,1.04,0.56,-5.13,0.89
0.0004799999999999991,0.05,0.06,1.04,0.82,-5.27,-0.79
0.0004833333333333324,0.02,0.05,1.03,0.34,-5.95,-3.77
0.00048666666666666574,0.08,0.05,1.0,1.65,-2.7,-3.19
0.0004899999999999991,0.08,0.06,0.99,2.84,-0.35,-2.17
0.0004933333333333325,0.07,0.06,1.01,5.08,0.9,-1.44
0.0004966666666666659,0.07,0.07,1.01,4.55,-0.95,-1.91
0.0004999999999999993,0.09,0.08,1.03,4.31,0.69,-0.61
0.0005033333333333326,0.1,0.07,1.05,1.91,1.82,1.36
0.000506666666666666,0.09,0.08,1.05,-1.15,3.13,0.55
0.0005099999999999994,0.08,0.09,1.03,0.23,3.36,-0.87
0.0005133333333333328,0.11,0.09,1.01,0.15,4.72,0.6
0.0005166666666666661,0.11,0.09,1.03,-0.81,3.36,3.74
0.0005199999999999995,0.09,0.08,1.03,-1.44,-0.38,5.89
0.0005233333333333329,0.08,0.08,1.01,-0.09,0.52,8.29
0.0005266666666666663,0.08,0.09,1.02,0.09,0.5,8.96
0.0005299999999999997,0.07,0.08,1.01,-1.54,-1.02,7.63
0.000533333333333333,0.04,0.08,1.01,-1.01,-0.72,5.94
0.0005366666666666664,0.06,0.09,0.99,-1.27,2.76,5.16
0.0005399999999999998,0.05,0.09,1.0,0.12,3.68,3.59
0.0005433333333333332,0.03,0.08,1.02,0.44,2.69,2.38
0.0005466666666666665,0.04,0.08,1.02,0.46,4.38,3.57
0.0005499999999999999,0.05,0.06,1.01,3.31,5.88,6.32
0.0005533333333333333,0.07,0.07,0.98,2.69,5.76,5.07
0.0005566666666666667,0.05,0.08,1.01,1.48,3.6,3.91
0.0005600000000000001,0.09,0.08,0.99,2.55,2.32,4.34
0.0005633333333333334,0.07,0.1,0.99,3.86,0.82,4.26
0.0005666666666666668,0.06,0.09,1.01,5.19,0.93,3.5
0.0005700000000000002,0.08,0.09,1.03,4.5,0.2,3.8
0.0005733333333333336,0.08,0.1,1.05,2.61,0.02,5.02
0.000576666666666667,0.1,0.1,1.05,2.56,2.63,7.76
0.0005800000000000003,0.05,0.09,1.04,-0.26,-2.35,5.76
0.0005833333333333337,0.06,0.09,1.03,-0.26,-2.9,5.1
0.0005866666666666671,0.07,0.09,1.02,1.15,-1.92,5.83
0.0005900000000000005,0.08,0.08,1.01,2.18,-0.05,5.86
0.0005933333333333338,0.08,0.08,1.02,2.63,1.62,8.69
0.0005966666666666672,0.06,0.08,1.02,2.75,-2.92,8.46
0.0006000000000000006,0.05,0.08,1.02,3.05,-3.82,8.09
0.000603333333333334,0.06,0.08,1.02,3.91,-1.89,7.42
0.0006066666666666674,0.04,0.09,1.03,4.26,0.29,7.45
0.0006100000000000007,0.03,0.09,1.03,4.38,-1.08,5.74
0.0006133333333333341,0.05,0.08,1.04,2.26,-1.08,5.73
0.0006166666666666675,0.06,0.08,1.04,1.28,-0.53,3.53
0.0006200000000000009,0.08,0.09,1.01,4.46,4.53,4.63
0.0006233333333333342,0.08,0.09,1.02,3.66,6.26,3.48
0.0006266666666666676,0.09,0.09,1.03,4.69,6.87,5.3
0.000630000000000001,0.06,0.09,1.06,1.76,2.96,4.34
0.0006333333333333344,0.09,0.09,1.07,-0.67,0.96,6.53
0.0006366666666666678,0.09,0.08,1.05,-1.86,-1.44,8.21
0.0006400000000000011,0.07,0.07,1.02,-2.03,-2.87,8.43
0.0006433333333333345,0.1,0.07,1.01,-1.74,-0.02,9.79
0.0006466666666666679,0.05,0.07,1.01,-1.33,-0.02,7.25
0.0006500000000000013,0.05,0.08,1.01,-0.56,-0.37,4.66
0.0006533333333333346,0.1,0.06,1.02,5.69,7.8,9.37
0.000656666666666668,0.05,0.1,1.05,0.05,3.24,4.76
0.0006600000000000014,0.08,0.08,1.04,-2.37,1.66,6.93
0.0006633333333333348,0.08,0.08,1.02,-3.95,1.94,7.05
0.0006666666666666682,0.07,0.07,1.01,-4.52,1.44,5.63
0.0006700000000000015,0.13,0.08,0.98,-1.98,8.61,8.82
0.0006733333333333349,0.09,0.08,0.98,-0.24,6.81,8.5
0.0006766666666666683,0.08,0.08,0.99,-0.05,3.25,7.65
0.0006800000000000017,0.05,0.09,1.01,1.56,1.25,7.04
0.000683333333333335,0.04,0.09,1.04,-0.52,1.33,6.21
0.0006866666666666684,0.03,0.09,1.05,-3.88,-0.44,5.3
0.0006900000000000018,0.02,0.09,1.03,-6.12,-1.36,4.95
0.0006933333333333352,0.02,0.08,0.98,-4.29,-1.71,3.53
0.0006966666666666686,0.01,0.08,0.96,-0.93,-3.68,2.95
0.0007000000000000019,0.03,0.09,0.95,-4.75,-15.45,-4.66
0.0007033333333333353,-0.07,0.1,1.27,1.74,-10.26,-3.25
0.0007066666666666687,-0.01,0.09,0.93,8.64,1.39,-2.87
0.0007100000000000021,0.03,0.1,0.98,7.69,-4.78,-5.22
0.0007133333333333355,0.07,0.1,1.0,7.68,-2.82,-5.02
0.0007166666666666688,0.02,0.1,0.98,9.25,-3.21,-6.9
0.0007200000000000022,0.04,0.12,0.99,10.69,-3.5,-10.92
0.0007233333333333356,0.05,0.13,1.01,12.53,4.9,-11.28
0.000726666666666669,0.04,0.12,1.05,19.65,3.83,-14.58
0.0007300000000000023,0.01,0.15,1.0,22.23,-8.2,-21.83
0.0007333333333333357,0.16,0.11,1.1,22.63,7.82,-14.14
0.0007366666666666691,0.06,0.09,1.11,9.54,4.73,-17.44
0.0007400000000000025,-0.03,0.11,1.02,3.82,-2.31,-17.5
0.0007433333333333359,0.04,0.12,1.01,10.82,-3.94,-16.96
0.0007466666666666692,-0.02,0.11,1.0,7.51,-13.89,-22.18
0.0007500000000000026,0.04,0.11,1.02,6.24,-9.11,-22.05
0.000753333333333336,0.06,0.11,1.01,5.48,-5.31,-22.23
0.0007566666666666694,0.05,0.13,1.0,4.55,-8.05,-23.63
0.0007600000000000028,0.08,0.12,1.01,4.38,-3.08,-21.63
0.0007633333333333361,0.07,0.13,1.02,3.22,-4.58,-24.18
0.0007666666666666695,0.08,0.13,1.01,4.21,-1.77,-25.16
0.0007700000000000029,0.12,0.13,1.0,4.47,3.39,-25.01
0.0007733333333333363,0.13,0.15,1.0,3.08,7.92,-23.89
0.0007766666666666696,0.13,0.14,0.98,2.96,11.73,-22.66
0.000780000000000003,0.1,0.15,0.98,3.47,11.56,-22.87
0.0007833333333333364,0.1,0.15,0.99,4.49,9.39,-22.84
0.0007866666666666698,0.11,0.15,1.0,4.69,4.69,-21.66
0.0007900000000000032,0.12,0.15,1.0,4.08,1.21,-18.96
0.0007933333333333365,0.12,0.15,1.01,4.41,-0.31,-13.91
0.0007966666666666699,0.09,0.15,1.01,4.72,-6.9,-11.6
0.0008000000000000033,0.02,0.14,1.02,5.1,-16.46,-12.12
0.0008033333333333367,-0.03,0.15,1.02,4.85,-25.11,-15.6
0.00080666666666667,-0.04,0.15,1.03,5.56,-27.44,-20.37
0.0008100000000000034,-0.01,0.15,1.05,4.89,-22.47,-22.31
0.0008133333333333368,0.04,0.14,1.04,2.17,-13.53,-19.02
0.0008166666666666702,0.08,0.14,1.07,0.67,-6.96,-16.12
0.0008200000000000036,0.09,0.13,1.03,-3.74,-6.49,-15.18
0.0008233333333333369,0.15,0.15,1.01,1.24,-0.92,-7.18
0.0008266666666666703,0.03,0.17,0.86,-0.11,-13.56,-14.95
0.0008300000000000037,0.05,0.13,1.07,-3.48,-9.85,-10.58
0.0008333333333333371,0.02,0.16,1.05,-7.39,-17.42,-15.22
0.0008366666666666705,0.06,0.15,1.02,-6.87,-15.97,-15.19
0.0008400000000000038,0.04,0.16,1.02,-6.5,-17.83,-17.48
0.0008433333333333372,0.08,0.14,1.03,-6.73,-16.11,-16.99
0.0008466666666666706,0.07,0.13,1.01,-8.69,-16.78,-17.4
0.000850000000000004,0.08,0.13,1.01,-9.02,-16.61,-16.6
0.0008533333333333373,0.1,0.14,1.01,-9.07,-17.63,-15.68
0.0008566666666666707,0.1,0.14,0.98,-7.94,-17.21,-15.02
0.0008600000000000041,0.08,0.13,0.99,-9.63,-18.52,-15.08
0.0008633333333333375,0.1,0.13,0.98,-10.12,-20.08,-16.47
0.0008666666666666709,0.11,0.12,0.96,-7.59,-15.91,-15.15
0.0008700000000000042,0.13,0.13,0.97,-16.49,-9.62,-13.5
0.0008733333333333376,0.09,0.1,0.95,-21.85,-17.31,-16.6
0.000876666666666671,0.12,0.16,0.95,-19.44,-3.42,-9.25
0.0008800000000000044,0.1,0.08,0.98,-11.25,-10.61,-11.08
0.0008833333333333377,0.06,0.11,0.99,-34.18,-22.73,-23.82
0.0008866666666666711,0.2,0.11,0.95,-4.99,-18.63,-17.22
0.0008900000000000045,0.18,0.09,0.97,-2.84,-9.34,-15.19
0.0008933333333333379,-0.02,0.06,1.01,-4.75,-0.34,-7.65
0.0008966666666666713,0.12,0.11,1.02,-4.02,-7.91,-11.5
0.0009000000000000046,0.33,0.06,0.93,-3.48,-1.13,-5.4
0.000903333333333338,0.19,0.1,0.94,-15.4,-2.17,-8.15
0.0009066666666666714,0.27,0.13,0.95,-6.58,-4.95,-8.53
0.0009100000000000048,0.16,0.09,1.02,-3.08,-2.93,-9.6
0.0009133333333333382,0.14,0.11,0.98,6.31,2.64,-7.83
0.0009166666666666715,0.17,0.08,0.97,8.44,3.1,-7.04
0.0009200000000000049,0.14,0.11,1.02,9.53,-0.12,-7.48
0.0009233333333333383,0.06,0.09,1.07,8.85,-6.73,-12.78
0.0009266666666666717,0.03,0.08,1.07,4.43,-11.83,-20.26
0.000930000000000005,0.09,0.08,1.06,1.08,-10.43,-22.55
0.0009333333333333384,0.11,0.09,1.0,1.94,-4.15,-22.35
0.0009366666666666718,0.09,0.11,0.99,3.42,-4.96,-27.73
0.0009400000000000052,0.14,0.12,0.98,4.93,-0.98,-28.2
0.0009433333333333386,0.17,0.12,1.01,5.1,4.52,-27.77
0.0009466666666666719,0.22,0.11,1.06,0.53,7.77,-23.71
0.0009500000000000053,0.16,0.11,1.05,-2.92,5.04,-21.08
0.0009533333333333387,0.16,0.11,1.05,-5.33,3.08,-20.4
0.0009566666666666721,0.12,0.1,1.03,-7.68,2.26,-21.45
0.0009600000000000054,0.09,0.13,1.01,-7.07,-0.08,-26.02
0.0009633333333333388,0.11,0.13,0.98,-2.78,3.83,-28.24
0.0009666666666666722,0.16,0.13,0.97,-0.29,11.51,-28.41
0.0009700000000000056,0.16,0.12,0.97,2.26,14.78,-24.63
0.000973333333333339,0.21,0.13,0.96,5.3,17.73,-21.27
0.0009766666666666723,0.13,0.11,0.97,6.93,9.83,-20.92
0.0009800000000000056,0.18,0.13,0.98,7.74,7.94,-15.66
0.0009833333333333389,0.16,0.12,1.0,9.15,0.98,-11.28
