time,accl_x,accl_y,accl_z,gyro_x,gyro_y,gyro_z
0.0,0.14,0.09,1.02,-1.69,3.11,-0.47
3.3333333333333333e-06,0.13,0.08,0.99,-2.32,2.4,0.76
6.666666666666667e-06,0.13,0.07,0.99,-2.43,2.15,2.55
9.999999999999999e-06,0.14,0.06,0.98,-1.54,-0.64,4.05
1.3333333333333333e-05,0.12,0.07,0.96,-1.77,-3.76,4.09
1.6666666666666667e-05,0.11,0.06,0.97,0.2,-4.4,4.02
2e-05,0.11,0.06,0.97,1.45,-2.17,4.66
2.3333333333333336e-05,0.1,0.06,0.98,2.89,-3.1,4.34
2.666666666666667e-05,0.1,0.06,0.98,3.18,-3.6,4.03
3.0000000000000004e-05,0.09,0.06,1.0,3.44,-3.34,2.96
3.3333333333333335e-05,0.11,0.07,1.02,4.03,0.82,2.32
3.6666666666666666e-05,0.1,0.08,1.03,5.05,3.83,0.61
3.9999999999999996e-05,0.1,0.09,1.03,6.09,5.95,0.09
4.333333333333333e-05,0.1,0.09,1.04,6.21,5.16,-0.02
4.666666666666666e-05,0.11,0.1,1.05,4.61,3.39,-1.01
4.999999999999999e-05,0.11,0.1,1.07,4.29,1.6,-0.23
5.333333333333332e-05,0.11,0.1,1.04,2.72,0.99,-0.2
5.666666666666665e-05,0.09,0.1,1.03,2.47,0.99,1.31
5.999999999999998e-05,0.08,0.1,1.01,2.21,-1.82,1.07
6.333333333333332e-05,0.07,0.09,1.01,1.68,-2.08,-0.78
6.666666666666666e-05,0.07,0.1,0.99,1.95,-2.02,-2.27
7e-05,0.05,0.11,0.99,2.29,-2.17,-5.07
7.333333333333333e-05,0.07,0.09,0.99,2.12,1.86,-7.18
7.666666666666667e-05,0.06,0.09,0.99,1.97,4.58,-10.55
8e-05,0.08,0.09,1.0,2.37,7.76,-11.04
8.333333333333334e-05,0.09,0.09,1.01,1.95,6.58,-11.88
8.666666666666668e-05,0.12,0.1,0.99,2.38,3.3,-11.34
9.000000000000002e-05,0.13,0.11,0.99,2.43,-0.47,-10.47
9.333333333333336e-05,0.17,0.11,0.99,3.31,-1.34,-6.73
9.66666666666667e-05,0.15,0.11,1.0,3.22,-4.84,-5.5
0.00010000000000000003,0.17,0.12,1.01,1.91,-4.61,-3.54
0.00010333333333333337,0.16,0.12,1.03,2.61,-6.66,-1.79
0.00010666666666666671,0.14,0.12,1.05,1.45,-8.06,-0.85
0.00011000000000000004,0.15,0.12,1.04,0.64,-5.68,0.18
0.00011333333333333338,0.12,0.12,1.05,-0.21,-2.85,1.04
0.00011666666666666672,0.12,0.13,1.04,-0.52,-1.19,0.47
0.00012000000000000006,0.11,0.12,1.03,-0.35,0.29,0.37
0.0001233333333333334,0.09,0.12,1.04,-0.41,1.56,-0.87
0.00012666666666666672,0.1,0.11,1.04,-0.99,0.34,-1.54
0.00013000000000000004,0.12,0.11,1.04,-1.88,-1.16,-0.89
0.00013333333333333337,0.12,0.11,1.04,-2.06,-1.51,1.27
0.0001366666666666667,0.1,0.11,1.03,-2.6,-7.33,0.35
0.00014000000000000001,0.08,0.12,1.01,1.56,-0.53,5.25
0.00014333333333333334,0.14,0.12,1.0,0.23,-4.55,3.19
0.00014666666666666666,0.11,0.11,0.99,2.93,-2.73,3.13
0.00015,0.1,0.09,0.99,3.59,-0.29,1.77
0.0001533333333333333,0.11,0.09,0.99,5.07,2.38,0.78
0.00015666666666666663,0.12,0.09,1.01,4.98,4.06,1.07
0.00015999999999999996,0.13,0.1,1.0,4.61,6.29,1.56
0.00016333333333333328,0.12,0.1,1.01,3.66,4.61,1.3
0.0001666666666666666,0.13,0.1,1.02,3.02,2.49,1.63
0.00016999999999999993,0.12,0.1,1.01,2.17,1.48,2.31
0.00017333333333333325,0.13,0.1,1.0,1.83,-0.15,2.99
0.00017666666666666658,0.12,0.11,0.98,2.73,-0.98,3.34
0.0001799999999999999,0.11,0.1,0.98,3.08,-3.02,2.73
0.00018333333333333323,0.13,0.11,0.97,3.68,-0.2,2.72
0.00018666666666666655,0.13,0.11,0.98,4.41,1.6,3.88
0.00018999999999999987,0.1,0.12,0.97,3.98,-1.37,2.7
0.0001933333333333332,0.08,0.12,0.99,4.47,-2.44,0.53
0.00019666666666666652,0.09,0.13,0.98,5.18,-1.86,-0.26
0.00019999999999999985,0.09,0.14,1.0,5.04,-4.34,-1.37
0.00020333333333333317,0.1,0.13,1.0,5.21,-5.74,-0.38
0.0002066666666666665,0.1,0.13,1.01,3.89,-7.71,-0.29
0.00020999999999999982,0.1,0.13,1.01,3.05,-10.95,-0.26
0.00021333333333333314,0.12,0.13,1.0,2.61,-12.37,-0.46
0.00021666666666666647,0.12,0.13,0.98,1.47,-6.79,0.82
0.0002199999999999998,0.1,0.13,0.98,1.28,-6.21,-1.31
0.00022333333333333311,0.1,0.14,0.96,2.12,-2.85,-3.15
0.00022666666666666644,0.1,0.13,0.96,3.63,-1.42,-5.02
0.00022999999999999976,0.09,0.13,0.97,5.16,-1.51,-7.69
0.0002333333333333331,0.14,0.13,0.99,7.02,1.53,-6.9
0.0002366666666666664,0.14,0.13,0.99,6.69,0.44,-6.66
0.00023999999999999974,0.12,0.13,1.01,7.18,-2.96,-6.7
0.00024333333333333306,0.1,0.12,1.03,5.22,-6.49,-8.87
0.0002466666666666664,0.09,0.14,1.03,1.69,-5.53,-11.44
0.00024999999999999973,0.07,0.14,1.02,-0.08,1.34,-15.73
0.00025333333333333306,0.08,0.14,1.03,-0.73,9.83,-21.02
0.0002566666666666664,0.1,0.15,1.02,-0.79,18.46,-23.18
0.0002599999999999997,0.12,0.15,1.03,-0.5,23.48,-22.72
0.00026333333333333303,0.11,0.16,1.05,-2.66,19.48,-22.23
0.00026666666666666635,0.12,0.16,1.06,-6.47,14.24,-22.35
0.0002699999999999997,0.12,0.16,1.08,-9.89,13.18,-19.47
0.000273333333333333,0.12,0.15,1.05,-10.9,12.11,-17.6
0.0002766666666666663,0.11,0.15,1.05,-11.27,9.83,-16.46
0.00027999999999999965,0.1,0.15,1.03,-11.5,10.37,-15.59
0.000283333333333333,0.12,0.11,1.02,-27.82,6.21,-21.56
0.0002866666666666663,0.1,0.15,0.91,-28.37,3.1,-21.47
0.0002899999999999996,0.06,0.14,0.94,-13.82,12.98,-18.0
0.00029333333333333295,0.07,0.13,1.01,-10.55,7.65,-18.18
0.00029666666666666627,0.12,0.11,1.05,-15.88,6.29,-17.27
0.0002999999999999996,0.12,0.11,0.98,-13.42,5.91,-14.17
0.0003033333333333329,0.07,0.12,1.05,-13.54,-5.73,-16.08
0.00030666666666666624,0.13,0.11,1.06,-15.6,-8.56,-13.33
0.00030999999999999957,0.09,0.12,1.04,-12.56,-7.45,-12.02
0.0003133333333333329,0.09,0.11,1.0,-7.98,-1.62,-8.67
0.0003166666666666662,0.08,0.12,0.99,-5.04,1.1,-6.09
0.00031999999999999954,0.12,0.11,0.99,-2.82,3.68,-2.89
0.00032333333333333286,0.1,0.1,1.02,-1.51,1.98,-1.54
0.0003266666666666662,0.1,0.11,1.01,-1.91,2.87,-0.32
0.0003299999999999995,0.09,0.11,1.02,-0.21,4.37,1.13
0.00033333333333333283,0.1,0.1,1.02,0.61,5.42,2.87
0.00033666666666666616,0.08,0.09,1.04,-0.76,0.0,1.86
0.0003399999999999995,0.05,0.09,1.04,-2.46,-5.19,-0.64
0.0003433333333333328,0.07,0.09,1.04,-3.36,-2.47,0.15
0.00034666666666666613,0.05,0.09,1.04,-4.75,-4.26,-1.33
0.00034999999999999945,0.07,0.09,1.03,-5.13,-3.53,-1.08
0.0003533333333333328,0.09,0.08,1.03,-4.99,-5.18,-0.14
0.0003566666666666661,0.1,0.09,1.0,-3.98,-4.43,2.03
0.0003599999999999994,0.07,0.08,1.0,-3.39,-8.98,0.18
0.00036333333333333275,0.05,0.09,1.01,-4.49,-11.01,-1.62
0.0003666666666666661,0.08,0.08,1.02,-4.9,-8.49,-1.79
0.0003699999999999994,0.07,0.08,1.01,-4.56,-6.89,-2.49
0.0003733333333333327,0.09,0.08,1.01,-4.21,-4.7,-2.64
0.00037666666666666605,0.07,0.08,1.0,-3.15,-6.18,-3.89
0.00037999999999999937,0.09,0.09,1.0,-3.71,-6.95,-5.22
0.0003833333333333327,0.11,0.1,0.98,-3.21,-5.89,-4.35
0.000386666666666666,0.12,0.09,0.99,-1.83,-4.89,-3.45
0.00038999999999999934,0.11,0.09,0.99,-1.89,-5.27,-3.51
0.00039333333333333267,0.12,0.09,0.99,1.24,-3.33,-2.53
0.000396666666666666,0.12,0.09,1.0,2.44,-4.53,-1.97
0.0003999999999999993,0.1,0.08,1.02,2.81,-6.56,-2.14
0.00040333333333333264,0.1,0.07,1.02,1.86,-5.21,-2.02
0.00040666666666666596,0.12,0.08,1.02,2.11,-4.96,-1.86
0.0004099999999999993,0.13,0.08,1.0,3.3,-2.37,-0.14
0.0004133333333333326,0.1,0.08,1.02,4.87,-4.6,-1.22
0.00041666666666666593,0.12,0.09,1.01,5.07,-1.97,-0.53
0.00041999999999999926,0.13,0.09,1.03,5.11,0.24,1.11
0.0004233333333333326,0.14,0.09,1.04,4.08,1.39,2.47
0.0004266666666666659,0.11,0.08,1.04,2.53,-1.01,1.76
0.00042999999999999923,0.12,0.09,1.03,1.27,2.23,3.21
0.00043333333333333255,0.12,0.09,1.02,2.93,-0.23,3.97
0.0004366666666666659,0.12,0.09,1.0,3.19,-1.98,4.6
0.0004399999999999992,0.1,0.08,1.01,3.48,-5.25,3.83
0.0004433333333333325,0.08,0.09,1.02,3.51,-5.57,2.18
0.00044666666666666585,0.09,0.1,1.03,2.85,-1.74,1.66
0.0004499999999999992,0.09,0.11,1.03,2.23,-2.06,-0.21
0.0004533333333333325,0.11,0.11,1.05,2.29,0.66,0.47
0.0004566666666666658,0.1,0.11,1.06,1.08,0.11,0.32
0.00045999999999999915,0.13,0.12,1.04,1.65,1.51,2.44
0.00046333333333333247,0.12,0.11,1.04,2.06,0.92,3.73
0.0004666666666666658,0.1,0.12,1.03,-0.27,-2.15,3.66
0.0004699999999999991,0.12,0.11,1.02,-0.93,-4.35,4.2
0.00047333333333333244,0.12,0.12,1.01,-0.23,-5.08,4.84
0.00047666666666666577,0.11,0.1,1.01,1.1,-5.68,5.51
0.0004799999999999991,0.11,0.1,1.01,1.19,-8.9,6.27
0.0004833333333333324,0.13,0.1,1.0,0.26,-7.01,8.44
0.00048666666666666574,0.03,0.11,1.09,0.58,-10.72,6.72
0.0004899999999999991,0.23,0.12,1.0,6.29,-3.1,7.66
0.0004933333333333325,0.06,0.09,1.11,2.85,-1.8,4.49
0.0004966666666666659,0.12,0.1,1.02,0.79,3.27,3.48
0.0004999999999999993,0.09,0.11,1.03,-1.44,9.44,3.05
0.0005033333333333326,0.05,0.1,1.03,-3.66,1.77,-0.4
0.000506666666666666,0.1,0.11,1.02,-3.88,-1.13,0.11
0.0005099999999999994,0.1,0.12,1.0,-3.74,0.14,1.11
0.0005133333333333328,0.1,0.12,1.02,-4.0,1.08,0.96
0.0005166666666666661,0.1,0.11,1.01,-5.15,1.39,0.35
0.0005199999999999995,0.09,0.14,0.95,-7.13,0.43,-1.74
0.0005233333333333329,0.11,0.09,1.01,-4.72,-1.4,-3.07
0.0005266666666666663,0.09,0.1,1.0,-5.3,-6.17,-5.85
0.0005299999999999997,0.13,0.1,0.99,-3.66,-1.4,-4.43
0.000533333333333333,0.13,0.1,0.99,-3.66,-0.85,-3.94
0.0005366666666666664,0.12,0.09,0.99,-1.83,-1.24,-4.44
0.0005399999999999998,0.12,0.09,0.98,-0.5,-0.03,-3.56
0.0005433333333333332,0.11,0.09,1.0,1.18,-2.34,-3.31
0.0005466666666666665,0.1,0.09,1.01,-0.64,-7.08,-4.61
0.0005499999999999999,0.11,0.09,0.98,-1.74,-6.4,-3.39
0.0005533333333333333,0.12,0.09,0.95,-1.02,-5.51,-2.37
0.0005566666666666667,0.12,0.08,0.96,3.05,-6.03,-2.75
0.0005600000000000001,0.11,0.08,0.96,5.01,-8.7,-3.36
0.0005633333333333334,0.23,0.12,0.87,13.74,3.5,-0.5
0.0005666666666666668,0.19,0.05,1.01,1.89,4.66,0.05
0.0005700000000000002,0.16,0.08,1.0,5.77,10.47,1.08
0.0005733333333333336,0.1,0.1,0.98,3.3,5.74,-3.44
0.000576666666666667,0.13,0.1,1.0,5.74,6.41,-2.66
0.0005800000000000003,0.11,0.1,1.02,6.6,4.92,-3.18
0.0005833333333333337,0.11,0.09,1.05,5.82,2.66,-2.66
0.0005866666666666671,0.11,0.09,1.06,5.57,-2.05,-2.12
0.0005900000000000005,0.13,0.1,1.05,5.71,-4.37,-0.64
0.0005933333333333338,0.12,0.1,1.06,4.2,-5.13,1.4
0.0005966666666666672,0.13,0.1,1.05,3.11,-9.01,3.45
0.0006000000000000006,0.15,0.11,1.02,1.71,-1.56,11.77
0.000603333333333334,0.18,0.12,0.97,7.69,12.03,19.74
0.0006066666666666674,0.04,0.09,0.99,25.73,-5.98,15.15
0.0006100000000000007,0.07,0.1,0.94,25.51,-10.58,9.11
0.0006133333333333341,0.09,0.11,1.06,24.67,-16.93,5.54
0.0006166666666666675,0.12,0.12,1.11,16.02,-23.39,5.74
0.0006200000000000009,0.11,0.1,1.14,-1.34,-30.66,-3.13
0.0006233333333333342,0.13,0.13,1.14,-14.49,-29.18,-5.04
0.0006266666666666676,0.17,0.12,1.07,-26.09,-36.21,-8.76
0.000630000000000001,0.19,0.15,1.01,-26.82,-27.13,-6.24
0.0006333333333333344,0.13,0.16,1.02,-19.89,-29.76,-8.89
0.0006366666666666678,0.12,0.14,0.96,-18.67,-34.44,-12.5
0.0006400000000000011,0.16,0.12,0.97,-16.29,-32.09,-14.46
0.0006433333333333345,0.2,0.15,0.9,-18.14,-30.32,-18.17
0.0006466666666666679,0.33,0.16,0.92,-20.08,-27.21,-19.4
0.0006500000000000013,0.19,0.07,0.89,-11.68,-15.5,-16.08
0.0006533333333333346,0.27,0.14,0.89,3.88,3.19,-1.83
0.000656666666666668,0.23,0.09,0.95,-1.02,-0.49,-2.66
0.0006600000000000014,0.24,0.08,0.96,2.61,6.35,3.04
0.0006633333333333348,0.16,0.08,0.93,5.01,-0.5,2.08
0.0006666666666666682,0.19,0.09,0.85,17.24,6.21,9.69
0.0006700000000000015,0.17,0.09,0.96,14.38,-5.31,-1.39
0.0006733333333333349,0.17,0.04,0.88,17.37,7.36,5.37
0.0006766666666666683,0.12,0.09,1.03,19.08,5.79,-6.18
0.0006800000000000017,0.15,0.12,1.01,10.21,28.89,-7.3
0.000683333333333335,0.15,0.13,0.98,10.58,31.37,-10.84
0.0006866666666666684,0.2,0.14,0.93,15.76,26.6,-9.82
0.0006900000000000018,0.22,0.13,1.05,12.26,19.89,-8.85
0.0006933333333333352,0.23,0.14,1.11,7.13,1.86,-9.73
0.0006966666666666686,0.26,0.15,1.12,2.08,-8.03,-5.25
0.0007000000000000019,0.26,0.15,1.1,-1.91,-13.27,-0.23
0.0007033333333333353,0.21,0.16,1.07,-2.06,-15.24,1.63
0.0007066666666666687,0.23,0.15,0.99,1.27,-6.03,4.61
0.0007100000000000021,0.18,0.14,0.99,3.4,-2.03,3.82
0.0007133333333333355,0.18,0.14,0.99,4.02,5.85,3.25
0.0007166666666666688,0.18,0.13,1.01,4.31,14.75,3.73
0.0007200000000000022,0.16,0.14,1.02,2.5,18.6,2.87
0.0007233333333333356,0.15,0.14,1.03,0.95,13.57,0.95
0.000726666666666669,0.18,0.14,1.02,-0.06,15.77,3.02
0.0007300000000000023,0.18,0.13,1.01,-0.81,14.47,4.2
0.0007333333333333357,0.16,0.12,1.02,-2.24,5.5,3.36
0.0007366666666666691,0.17,0.18,1.06,-2.2,5.92,4.47
0.0007400000000000025,0.18,0.12,0.98,0.58,1.85,4.2
0.0007433333333333359,0.28,0.17,0.99,3.34,5.04,3.6
0.0007466666666666692,0.13,0.12,1.02,0.99,0.72,0.66
0.0007500000000000026,0.14,0.11,1.03,-0.75,2.93,0.58
0.000753333333333336,0.16,0.12,1.02,-0.98,5.73,1.31
0.0007566666666666694,0.13,0.13,1.03,-2.58,4.4,0.72
0.0007600000000000028,0.17,0.12,1.01,-2.23,7.69,3.6
0.0007633333333333361,0.15,0.13,1.01,-1.86,1.83,3.65
0.0007666666666666695,0.15,0.12,1.0,-1.74,-3.22,4.93
0.0007700000000000029,0.14,0.12,1.0,-0.75,-4.73,5.02
0.0007733333333333363,0.13,0.11,1.01,-0.66,-5.31,4.63
0.0007766666666666696,0.11,0.12,0.98,-2.03,-3.56,2.58
0.000780000000000003,0.1,0.11,0.99,-0.93,0.06,1.1
0.0007833333333333364,0.11,0.12,0.98,-0.24,2.46,-0.18
0.0007866666666666698,0.11,0.12,0.99,0.5,3.97,-1.34
0.0007900000000000032,0.1,0.12,0.98,1.4,3.27,-3.21
0.0007933333333333365,0.13,0.12,0.97,2.72,6.0,-2.82
0.0007966666666666699,0.13,0.12,1.0,4.24,4.14,-3.45
0.0008000000000000033,0.14,0.13,1.01,2.6,0.87,-3.4
0.0008033333333333367,0.15,0.14,1.01,0.95,0.14,-2.52
0.00080666666666667,0.16,0.13,1.0,1.18,1.92,-0.87
0.0008100000000000034,0.13,0.14,1.0,1.45,0.99,-2.55
0.0008133333333333368,0.13,0.15,0.96,2.72,0.4,-4.41
0.0008166666666666702,0.13,0.14,0.96,4.29,1.15,-4.73
0.0008200000000000036,0.15,0.14,0.98,6.37,1.36,-4.79
0.0008233333333333369,0.15,0.13,1.01,7.04,0.14,-4.43
0.0008266666666666703,0.15,0.12,1.02,6.56,-0.11,-3.51
0.0008300000000000037,0.13,0.13,1.01,4.96,-1.56,-3.34
0.0008333333333333371,0.14,0.13,1.0,5.31,-2.03,-3.13
0.0008366666666666705,0.15,0.14,0.97,7.15,-0.32,-0.99
0.0008400000000000038,0.12,0.14,0.97,7.95,-4.93,-2.35
0.0008433333333333372,0.13,0.14,0.95,10.72,-5.94,-2.58
0.0008466666666666706,0.13,0.14,0.95,15.45,-4.53,-3.07
0.000850000000000004,0.14,0.14,0.92,20.29,-4.95,-4.08
0.0008533333333333373,0.16,0.16,0.91,26.96,5.53,-2.21
0.0008566666666666707,0.13,0.17,0.9,31.63,9.36,-1.01
0.0008600000000000041,0.15,0.18,0.95,31.21,8.0,-2.2
0.0008633333333333375,0.15,0.19,0.99,30.67,14.46,-1.01
0.0008666666666666709,0.14,0.2,1.04,28.49,12.23,-4.35
0.0008700000000000042,0.15,0.2,1.11,20.38,11.91,-4.41
0.0008733333333333376,0.14,0.2,1.12,13.77,6.99,-4.09
0.000876666666666671,0.15,0.2,1.1,10.05,0.75,-2.76
0.0008800000000000044,0.17,0.21,1.06,6.73,-2.29,-0.06
0.0008833333333333377,0.17,0.21,1.04,5.63,-3.45,3.08
0.0008866666666666711,0.15,0.21,1.01,4.96,-7.18,3.86
0.0008900000000000045,0.12,0.19,1.01,4.92,-9.83,2.58
0.0008933333333333379,0.1,0.2,0.99,6.4,-9.44,-0.87
0.0008966666666666713,0.14,0.21,0.99,7.5,0.17,0.73
0.0009000000000000046,0.13,0.21,1.01,7.07,8.41,-0.27
0.000903333333333338,0.09,0.21,1.02,6.02,7.88,-4.44
0.0009066666666666714,0.13,0.22,1.04,4.49,6.81,-5.86
0.0009100000000000048,0.14,0.21,1.04,2.53,5.44,-5.21
0.0009133333333333382,0.16,0.22,1.03,1.11,1.19,-3.79
0.0009166666666666715,0.19,0.23,1.0,1.88,0.81,-0.31
0.0009200000000000049,0.17,0.23,1.0,0.63,-3.76,2.23
0.0009233333333333383,0.15,0.22,0.99,1.83,-4.17,4.05
0.0009266666666666717,0.13,0.22,0.96,-0.52,-11.56,1.31
0.000930000000000005,0.15,0.23,0.96,3.22,-6.23,2.37
0.0009333333333333384,0.12,0.24,0.93,4.58,-4.55,0.2
0.0009366666666666718,0.12,0.24,0.97,5.54,-3.82,-2.18
0.0009400000000000052,0.12,0.24,1.0,5.33,-3.62,-3.45
0.0009433333333333386,0.13,0.25,1.01,4.64,1.27,-3.45
0.0009466666666666719,0.14,0.25,1.02,2.9,0.98,-4.12
0.0009500000000000053,0.16,0.25,1.01,2.76,1.3,-2.72
0.0009533333333333387,0.12,0.24,1.01,1.28,-3.89,-5.05
0.0009566666666666721,0.13,0.24,0.99,-0.6,-8.75,-6.15
0.0009600000000000054,0.13,0.23,0.96,1.6,-8.0,-5.34
0.0009633333333333388,0.14,0.23,0.97,2.78,-4.02,-4.06
0.0009666666666666722,0.15,0.23,0.99,2.79,-2.44,-3.21
0.0009700000000000056,0.11,0.22,0.99,3.21,-5.27,-5.65
0.000973333333333339,0.14,0.23,0.99,1.89,-2.95,-5.05
0.0009766666666666723,0.11,0.23,0.99,2.76,-2.24,-6.03
0.0009800000000000056,0.13,0.24,0.99,3.76,-0.64,-7.25
0.0009833333333333389,0.12,0.23,1.0,3.5,-0.92,-8.79
0.0009866666666666721,0.13,0.22,1.0,4.92,-2.89,-10.23
0.0009900000000000054,0.14,0.22,0.98,5.79,-4.4,-9.65
0.0009933333333333387,0.15,0.22,0.97,6.95,-7.27,-8.67
0.000996666666666672,0.14,0.22,0.97,12.52,-3.33,-5.79
0.0010000000000000052,0.15,0.22,0.98,11.28,-8.6,-6.7
0.0010033333333333385,0.12,0.25,0.97,9.15,-2.69,-7.37
0.0010066666666666718,0.13,0.25,0.99,-6.09,-19.57,-15.71
0.001010000000000005,0.19,0.27,1.21,-0.55,-3.8,-12.92
0.0010133333333333383,0.21,0.27,0.96,2.18,2.53,-10.75
0.0010166666666666716,0.18,0.28,0.9,7.18,9.22,-7.07
0.0010200000000000048,0.17,0.26,1.01,6.03,1.74,-6.99
0.0010233333333333381,0.18,0.25,1.01,4.4,-1.69,-5.24
0.0010266666666666714,0.16,0.25,1.0,1.86,-4.99,-4.85
0.0010300000000000047,0.18,0.25,1.0,0.58,-6.61,-3.05
0.001033333333333338,0.14,0.24,0.98,1.92,-7.8,-2.12
0.0010366666666666712,0.13,0.26,0.96,-3.68,-13.04,-5.6
0.0010400000000000045,0.16,0.25,0.96,2.41,-6.93,-4.14
0.0010433333333333377,0.13,0.26,0.94,3.88,-7.28,-6.5
0.001046666666666671,0.17,0.25,0.97,4.95,-2.7,-6.08
0.0010500000000000043,0.19,0.25,0.99,5.07,3.65,-2.79
0.0010533333333333375,0.13,0.26,1.0,4.21,-1.85,-5.36
0.0010566666666666708,0.15,0.27,0.98,4.26,-3.85,-6.09
0.001060000000000004,0.21,0.29,1.02,-3.73,-8.53,-6.56
0.0010633333333333374,0.17,0.26,0.95,1.79,-0.66,-0.14
0.0010666666666666706,0.18,0.26,0.99,1.97,-4.56,-2.98
0.0010700000000000039,0.13,0.27,0.95,7.04,-7.79,-5.13
0.0010733333333333372,0.12,0.29,1.0,9.65,-4.85,-4.95
0.0010766666666666704,0.14,0.28,0.98,5.85,-8.64,-6.56
0.0010800000000000037,0.14,0.27,0.98,4.29,-3.98,-6.75
0.001083333333333337,0.16,0.3,0.98,2.47,-0.64,-5.37
0.0010866666666666702,0.16,0.27,1.01,3.31,14.93,-1.89
0.0010900000000000035,0.14,0.3,1.06,-10.63,-6.37,-5.63
0.0010933333333333368,0.2,0.27,0.94,1.74,6.03,1.83
0.00109666666666667,0.13,0.26,0.97,-0.89,-5.82,-3.45
0.0011000000000000033,0.15,0.28,0.97,0.38,-4.78,-3.73
0.0011033333333333366,0.17,0.27,0.93,1.85,-2.72,-3.65
0.0011066666666666699,0.15,0.29,0.97,2.23,-4.73,-4.52
0.0011100000000000031,0.18,0.28,0.95,-5.07,-7.53,-6.12
0.0011133333333333364,0.2,0.29,0.99,0.44,-3.63,-4.21
0.0011166666666666697,0.19,0.28,0.97,2.58,-0.37,-2.52
0.001120000000000003,0.17,0.29,1.0,2.06,-4.08,-2.99
0.0011233333333333362,0.19,0.27,0.99,0.27,2.38,-0.84
0.0011266666666666695,0.17,0.29,0.95,1.33,1.59,-2.09
0.0011300000000000027,0.18,0.3,0.94,4.06,3.74,-2.02
0.001133333333333336,0.16,0.29,0.99,3.37,-1.25,-2.89
0.0011366666666666693,0.16,0.27,1.0,2.37,-3.86,-3.88
0.0011400000000000026,0.16,0.28,1.04,-1.21,-3.63,-4.6
0.0011433333333333358,0.19,0.27,1.0,-1.37,-2.09,-0.64
0.001146666666666669,0.15,0.28,0.96,1.6,-1.71,-2.12
0.0011500000000000024,0.14,0.27,0.97,0.6,-4.81,-2.96
0.0011533333333333356,0.16,0.26,0.97,1.08,-4.08,-2.08
0.001156666666666669,0.14,0.25,0.97,1.98,-2.69,-2.6
0.0011600000000000022,0.14,0.26,0.95,2.92,-2.55,-4.43
0.0011633333333333354,0.14,0.28,0.95,3.59,-3.3,-7.71
0.0011666666666666687,0.18,0.29,0.97,0.56,-2.82,-9.11
0.001170000000000002,0.13,0.28,1.05,-5.25,0.23,-7.82
0.0011733333333333353,0.18,0.28,1.01,-3.79,8.95,-3.94
0.0011766666666666685,0.21,0.3,0.95,3.07,-1.63,-4.99
0.0011800000000000018,0.16,0.31,0.96,2.32,-4.17,-3.39
0.001183333333333335,0.2,0.28,1.01,-1.25,-10.43,-3.53
0.0011866666666666683,0.22,0.27,1.0,0.2,-5.83,-1.15
0.0011900000000000016,0.17,0.25,0.96,-2.08,-5.63,0.35
0.0011933333333333349,0.18,0.25,0.95,-1.15,-4.89,-0.78
0.0011966666666666681,0.15,0.27,0.95,-0.15,-1.05,-1.79
0.0012000000000000014,0.13,0.26,0.96,-3.24,-0.96,-3.62
0.0012033333333333347,0.19,0.28,0.9,3.33,4.64,-1.19
0.001206666666666668,0.17,0.27,0.94,2.38,1.44,-1.8
0.0012100000000000012,0.09,0.32,1.01,0.4,-6.24,-4.34
0.0012133333333333345,0.21,0.26,0.97,-6.5,-1.42,-4.72
0.0012166666666666678,0.15,0.25,0.95,-1.42,-4.11,-6.34
0.001220000000000001,0.18,0.29,0.93,3.77,-1.73,-5.69
0.0012233333333333343,0.19,0.28,0.97,2.98,-4.46,-6.15
0.0012266666666666676,0.16,0.29,0.96,2.76,-2.89,-7.57
0.0012300000000000008,0.18,0.3,0.94,3.97,-1.34,-9.16
