time,accl_x,accl_y,accl_z,gyro_x,gyro_y,gyro_z
0.0,0.04,-0.09,0.96,-4.64,-3.68,0.72
3.3333333333333333e-06,0.03,-0.09,0.99,-2.11,-2.99,2.15
6.666666666666667e-06,0.01,-0.1,0.98,-0.31,-5.08,1.6
9.999999999999999e-06,-0.0,-0.09,1.01,-0.31,-5.94,1.42
1.3333333333333333e-05,-0.01,-0.1,1.03,-2.72,-5.65,0.11
1.6666666666666667e-05,-0.02,-0.09,1.06,-5.62,-6.29,-3.91
2e-05,0.0,-0.08,1.04,-4.35,2.09,-3.74
2.3333333333333336e-05,-0.01,-0.08,1.02,-4.49,-0.81,-5.08
2.666666666666667e-05,0.02,-0.08,1.0,-1.4,1.4,-4.92
3.0000000000000004e-05,0.03,-0.08,1.02,0.26,1.31,-5.18
3.3333333333333335e-05,0.03,-0.08,1.04,-0.66,-0.73,-6.05
3.6666666666666666e-05,0.04,-0.06,1.07,-2.18,-2.72,-6.14
3.9999999999999996e-05,0.04,-0.09,1.07,-3.76,-3.98,-6.14
4.333333333333333e-05,0.05,-0.09,1.04,-4.55,-3.79,-5.13
4.666666666666666e-05,0.07,-0.09,0.99,-2.73,-0.11,-2.64
4.999999999999999e-05,0.04,-0.09,1.01,-1.44,2.21,-2.66
5.333333333333332e-05,0.05,-0.09,1.02,-1.94,5.08,-2.05
5.666666666666665e-05,0.04,-0.1,1.02,-1.63,4.78,-2.09
5.999999999999998e-05,0.06,-0.1,1.01,-1.68,2.11,-1.98
6.333333333333332e-05,0.08,-0.09,1.0,-1.33,0.76,-0.11
6.666666666666666e-05,0.06,-0.1,1.0,-0.03,-1.95,1.13
7e-05,0.06,-0.09,0.99,1.76,-2.96,1.69
7.333333333333333e-05,0.06,-0.1,1.01,1.51,-1.25,3.31
7.666666666666667e-05,0.04,-0.09,1.01,2.58,-2.79,3.18
8e-05,0.04,-0.1,1.02,1.94,-1.71,3.02
8.333333333333334e-05,0.04,-0.09,1.02,1.51,0.34,2.56
8.666666666666668e-05,0.02,-0.1,1.0,3.27,0.15,0.55
9.000000000000002e-05,0.04,-0.09,0.99,4.37,1.86,0.64
9.333333333333336e-05,0.06,-0.1,1.01,4.56,2.2,1.07
9.66666666666667e-05,0.05,-0.09,1.02,4.84,0.41,1.27
0.00010000000000000003,0.06,-0.09,1.03,3.56,-0.21,1.63
0.00010333333333333337,0.08,-0.1,1.04,2.15,-0.37,3.1
0.00010666666666666671,0.11,-0.1,1.0,1.48,0.69,6.03
0.00011000000000000004,0.09,-0.13,0.99,2.55,-0.05,6.93
0.00011333333333333338,0.06,-0.12,0.98,4.67,-0.69,7.66
0.00011666666666666672,0.07,-0.12,1.01,5.01,-1.65,8.75
0.00012000000000000006,0.02,-0.11,1.03,3.63,-2.93,7.1
0.0001233333333333334,0.02,-0.1,1.05,2.12,-4.7,4.82
0.00012666666666666672,0.02,-0.1,1.06,0.89,-4.82,4.4
0.00013000000000000004,0.05,-0.09,1.03,-0.11,-4.98,5.34
0.00013333333333333337,0.03,-0.09,1.03,-1.1,-4.64,4.61
0.0001366666666666667,0.02,-0.1,1.02,-1.24,-6.17,3.18
0.00014000000000000001,0.03,-0.09,0.99,0.82,-5.47,3.07
0.00014333333333333334,0.04,-0.08,0.99,1.42,-1.53,2.82
0.00014666666666666666,0.02,-0.09,1.02,1.1,-0.69,0.87
0.00015,0.02,-0.08,1.03,0.55,-0.92,-1.3
0.0001533333333333333,0.04,-0.07,1.02,-0.76,-0.92,-3.91
0.00015666666666666663,0.06,-0.07,1.01,-1.05,-3.11,-3.65
0.00015999999999999996,0.06,-0.08,1.02,-2.14,-3.51,-2.78
0.00016333333333333328,0.06,-0.07,0.99,-1.3,-3.48,-2.58
0.0001666666666666666,0.07,-0.08,1.0,-0.34,-4.35,-1.8
0.00016999999999999993,0.04,-0.08,1.02,-0.7,-4.6,-2.61
0.00017333333333333325,0.06,-0.08,1.04,-1.54,-4.09,-3.13
0.00017666666666666658,0.07,-0.08,1.03,-2.85,-1.01,-2.12
0.0001799999999999999,0.06,-0.08,1.03,-3.1,-0.38,-1.48
0.00018333333333333323,0.03,-0.09,1.01,-3.04,0.73,-3.66
0.00018666666666666655,0.05,-0.11,1.0,-2.92,1.85,-3.36
0.00018999999999999987,0.05,-0.11,1.01,-2.15,2.6,-3.63
0.0001933333333333332,0.04,-0.12,1.0,-1.86,0.2,-3.98
0.00019666666666666652,0.06,-0.11,1.01,-1.68,0.85,-2.72
0.00019999999999999985,0.03,-0.12,1.04,-2.75,-1.04,-3.02
0.00020333333333333317,0.02,-0.12,1.04,-3.97,-2.47,-4.17
0.0002066666666666665,0.0,-0.1,1.05,-4.14,-1.92,-6.7
0.00020999999999999982,0.01,-0.1,1.05,-5.79,0.11,-8.31
0.00021333333333333314,0.03,-0.1,1.03,-6.2,3.47,-8.43
0.00021666666666666647,0.03,-0.1,1.02,-5.56,3.98,-8.44
0.0002199999999999998,0.02,-0.1,1.01,-4.38,0.43,-9.62
0.00022333333333333311,0.03,-0.12,1.01,-4.37,-1.51,-10.32
0.00022666666666666644,0.04,-0.11,0.98,-3.01,-0.37,-9.83
0.00022999999999999976,0.04,-0.12,0.99,-3.16,2.05,-8.95
0.0002333333333333331,0.04,-0.11,0.99,-3.3,1.62,-9.42
0.0002366666666666664,0.07,-0.12,0.98,-3.02,2.24,-7.95
0.00023999999999999974,0.08,-0.12,0.97,-0.81,2.76,-4.79
0.00024333333333333306,0.08,-0.12,0.97,0.84,5.21,-1.11
0.0002466666666666664,0.06,-0.1,1.0,2.69,6.05,1.04
0.00024999999999999973,0.03,-0.11,1.03,3.19,9.37,0.32
0.00025333333333333306,0.06,-0.1,1.05,2.21,14.92,2.12
0.0002566666666666664,0.08,-0.11,1.04,1.71,17.28,5.42
0.0002599999999999997,0.07,-0.1,1.01,2.84,16.14,7.79
0.00026333333333333303,0.06,-0.09,1.01,2.6,12.73,8.87
0.00026666666666666635,0.07,-0.09,1.01,3.08,11.91,10.53
0.0002699999999999997,0.07,-0.08,1.0,3.82,12.75,10.58
0.000273333333333333,0.05,-0.07,0.99,4.85,16.98,10.72
0.0002766666666666663,0.04,-0.07,1.01,5.21,17.63,9.6
0.00027999999999999965,0.03,-0.07,1.03,3.22,15.77,8.31
0.000283333333333333,0.03,-0.07,1.03,1.21,11.21,8.26
0.0002866666666666663,0.05,-0.07,1.01,-0.82,7.69,9.73
0.0002899999999999996,0.05,-0.09,1.0,-2.05,4.84,11.85
0.00029333333333333295,0.02,-0.09,0.99,-3.01,3.69,10.98
0.00029666666666666627,0.02,-0.08,0.96,-1.98,3.54,9.54
0.0002999999999999996,0.02,-0.07,0.94,-1.15,7.02,9.01
0.0003033333333333329,0.01,-0.08,0.97,-0.63,7.15,7.05
0.00030666666666666624,0.0,-0.07,0.98,0.37,4.78,6.75
0.00030999999999999957,0.01,-0.07,1.02,0.17,1.42,7.5
0.0003133333333333329,0.0,-0.08,1.06,-2.82,-2.67,7.74
0.0003166666666666662,-0.01,-0.09,1.05,-5.48,-4.41,7.19
0.00031999999999999954,-0.01,-0.09,1.02,-5.39,-2.9,6.2
0.00032333333333333286,-0.01,-0.09,0.98,-2.76,-1.4,5.95
0.0003266666666666662,0.0,-0.11,0.98,-0.12,0.67,6.96
0.0003299999999999995,-0.02,-0.11,1.01,2.76,-1.82,6.4
0.00033333333333333283,-0.03,-0.11,1.02,4.47,-7.95,5.74
0.00033666666666666616,-0.05,-0.1,1.06,4.49,-12.63,4.31
0.0003399999999999995,-0.08,-0.12,1.07,3.94,-16.38,-0.93
0.0003433333333333328,-0.04,-0.09,1.08,6.26,-15.27,-6.41
0.00034666666666666613,0.01,-0.08,1.09,5.48,-8.6,-3.25
0.00034999999999999945,0.0,-0.05,1.11,3.42,-4.53,-3.19
0.0003533333333333328,-0.0,-0.16,1.1,0.15,-12.99,-15.44
0.0003566666666666661,-0.05,-0.12,1.1,4.98,-6.4,-2.4
0.0003599999999999994,-0.55,-0.22,1.33,-0.79,-7.47,-5.4
0.00036333333333333275,-0.01,-0.1,1.05,-3.07,-25.6,-12.02
0.0003666666666666661,0.05,-0.05,1.04,-4.35,-11.1,-2.76
0.0003699999999999994,0.07,-0.03,1.02,-3.98,-12.96,2.09
0.0003733333333333327,0.08,-0.08,1.04,-2.64,-4.72,14.43
0.00037666666666666605,-0.0,-0.09,1.04,-0.52,1.08,10.5
0.00037999999999999937,-0.06,-0.09,0.96,0.69,-4.6,5.83
0.0003833333333333327,0.15,-0.1,0.94,5.82,-2.05,12.6
0.000386666666666666,0.06,-0.1,0.97,3.16,-8.17,13.54
0.00038999999999999934,0.04,-0.1,1.05,-1.22,-7.28,16.03
0.00039333333333333267,-0.07,-0.09,1.11,4.79,-12.47,12.56
0.000396666666666666,0.12,-0.03,0.92,0.18,-11.11,11.01
0.0003999999999999993,0.0,-0.08,1.05,-4.61,-8.12,10.14
0.00040333333333333264,-0.03,-0.09,1.04,-6.61,-1.62,3.57
0.00040666666666666596,-0.03,-0.09,1.02,-9.34,1.88,-0.61
0.0004099999999999993,0.0,-0.09,1.02,-7.89,1.3,-4.32
0.0004133333333333326,0.02,-0.08,1.0,-7.57,5.33,-0.37
0.00041666666666666593,0.01,-0.09,0.99,-7.68,2.12,-1.91
0.00041999999999999926,0.01,-0.09,1.01,-7.8,-2.63,-4.43
0.0004233333333333326,0.04,-0.08,0.99,-7.34,-3.07,-4.17
0.0004266666666666659,0.07,-0.09,0.99,-6.96,-1.24,-2.38
0.00042999999999999923,0.05,-0.09,1.0,-5.56,1.27,-1.6
0.00043333333333333255,0.02,-0.09,1.02,-6.43,1.25,-3.16
0.0004366666666666659,0.02,-0.09,1.02,-7.05,1.98,-4.31
0.0004399999999999992,0.01,-0.1,1.02,-7.95,1.36,-7.27
0.0004433333333333325,0.0,-0.09,1.0,-7.71,-0.44,-9.45
0.00044666666666666585,0.04,-0.1,1.01,-7.88,-1.65,-9.4
0.0004499999999999992,0.04,-0.11,0.99,-8.0,-3.31,-10.24
0.0004533333333333325,0.09,-0.1,0.98,-6.06,-4.05,-7.74
0.0004566666666666658,0.1,-0.11,0.96,-4.27,-1.19,-2.52
0.00045999999999999915,0.06,-0.11,0.95,-1.79,-4.08,-2.55
0.00046333333333333247,0.05,-0.12,0.96,-0.35,-6.34,-3.01
0.0004666666666666658,0.03,-0.12,0.98,-0.14,-6.21,-5.77
0.0004699999999999991,0.03,-0.12,0.96,2.85,-3.19,-9.63
0.00047333333333333244,0.04,-0.09,0.93,5.51,0.84,-12.55
0.00047666666666666577,0.05,-0.11,0.93,8.55,1.4,-13.57
0.0004799999999999991,0.05,-0.13,0.94,11.74,-4.55,-15.59
0.0004833333333333324,0.08,-0.13,0.95,13.95,-6.53,-13.95
0.00048666666666666574,0.15,-0.09,0.98,12.93,-4.95,-3.68
0.0004899999999999991,0.07,-0.11,1.04,11.07,-8.58,-0.93
0.0004933333333333325,0.04,-0.1,1.04,10.95,-6.75,-4.03
0.0004966666666666659,0.03,-0.12,1.07,7.63,-4.14,-2.72
0.0004999999999999993,0.06,-0.09,1.04,7.02,2.66,-1.74
0.0005033333333333326,0.04,-0.11,1.03,6.0,4.6,-1.25
0.000506666666666666,0.06,-0.11,1.02,6.12,1.37,0.53
0.0005099999999999994,0.07,-0.11,0.98,7.94,-3.47,3.69
0.0005133333333333328,0.05,-0.1,0.96,11.56,-8.63,5.89
0.0005166666666666661,0.05,-0.1,0.97,15.08,-12.7,6.24
0.0005199999999999995,0.06,-0.09,1.01,15.37,-12.69,6.46
0.0005233333333333329,0.07,-0.08,1.06,13.19,-5.3,7.69
0.0005266666666666663,0.1,-0.08,1.07,9.47,3.91,9.21
0.0005299999999999997,0.06,-0.07,1.1,5.73,6.66,7.68
0.000533333333333333,0.02,-0.05,1.07,5.53,6.92,3.62
0.0005366666666666664,0.0,-0.05,1.08,4.53,4.15,-2.12
0.0005399999999999998,0.06,-0.06,1.07,2.44,6.26,-3.53
0.0005433333333333332,0.08,-0.07,1.06,1.4,7.02,-2.6
0.0005466666666666665,0.04,-0.08,1.05,-0.02,9.01,-4.29
0.0005499999999999999,0.02,-0.07,1.06,-0.26,7.71,-7.01
0.0005533333333333333,0.03,-0.07,1.02,0.44,8.02,-6.81
0.0005566666666666667,0.04,-0.07,1.02,0.75,4.67,-6.06
0.0005600000000000001,0.04,-0.08,1.01,0.87,2.56,-6.11
0.0005633333333333334,0.05,-0.07,1.02,0.46,-0.64,-6.03
0.0005666666666666668,0.06,-0.07,1.04,-0.56,-0.89,-4.7
0.0005700000000000002,0.04,-0.07,1.04,-1.31,0.5,-6.58
0.0005733333333333336,0.05,-0.07,1.04,-2.43,5.15,-7.76
0.000576666666666667,0.05,-0.07,1.05,-2.75,7.74,-7.65
0.0005800000000000003,0.06,-0.06,1.02,-2.98,6.55,-6.4
0.0005833333333333337,0.07,-0.07,1.01,-2.2,2.11,-4.05
0.0005866666666666671,0.08,-0.07,1.0,-2.53,-2.75,-2.79
0.0005900000000000005,0.05,-0.07,1.02,-2.2,-4.52,-2.76
0.0005933333333333338,0.05,-0.06,1.0,-1.02,-3.44,-4.12
0.0005966666666666672,0.05,-0.07,0.98,0.05,-0.08,-4.49
0.0006000000000000006,0.05,-0.07,1.01,1.07,3.37,-2.66
0.000603333333333334,0.08,-0.06,0.97,2.84,1.74,-0.18
0.0006066666666666674,0.09,-0.07,0.99,3.68,-3.71,3.54
0.0006100000000000007,0.12,-0.05,0.99,4.93,-8.41,10.29
0.0006133333333333341,0.1,-0.04,0.99,6.78,-11.76,14.41
0.0006166666666666675,0.01,-0.03,1.0,6.2,-11.65,11.27
0.0006200000000000009,0.01,-0.03,1.0,6.73,-1.51,5.59
0.0006233333333333342,0.02,-0.05,1.0,6.61,6.84,1.47
0.0006266666666666676,0.04,-0.04,0.99,6.41,10.0,-0.37
0.000630000000000001,0.06,-0.04,0.98,8.08,5.19,-0.7
0.0006333333333333344,0.07,-0.04,0.98,8.92,-2.09,0.67
0.0006366666666666678,0.06,-0.04,1.0,9.56,-8.12,1.68
0.0006400000000000011,0.11,-0.02,1.02,8.75,-8.41,5.34
0.0006433333333333345,0.04,-0.03,1.04,6.43,-6.89,4.4
0.0006466666666666679,0.02,-0.04,1.05,4.06,-4.05,0.96
0.0006500000000000013,0.03,-0.05,1.04,2.78,-1.16,-1.31
0.0006533333333333346,-0.0,-0.08,1.05,3.85,-1.36,-4.29
0.000656666666666668,0.06,-0.04,0.98,5.01,-1.63,-5.33
0.0006600000000000014,0.01,-0.06,1.0,7.16,-8.55,-8.82
0.0006633333333333348,0.02,0.01,0.83,3.88,-22.73,-12.5
0.0006666666666666682,-0.07,-0.13,1.13,10.41,-40.64,-24.11
0.0006700000000000015,-0.02,0.03,1.05,-2.7,-8.75,-15.88
0.0006733333333333349,-0.01,-0.04,1.05,11.98,-14.99,-23.77
0.0006766666666666683,0.19,-0.04,1.0,13.74,-8.66,-16.2
0.0006800000000000017,0.24,-0.01,1.04,5.63,3.68,-1.22
0.000683333333333335,0.14,-0.03,1.02,4.92,6.17,2.6
0.0006866666666666684,0.1,-0.03,1.01,7.65,6.96,3.66
0.0006900000000000018,0.09,0.01,1.02,10.38,0.93,4.35
0.0006933333333333352,0.11,0.0,1.03,11.08,0.47,6.58
0.0006966666666666686,0.06,-0.01,1.07,12.09,-0.32,4.96
0.0007000000000000019,0.06,-0.01,1.07,7.11,-3.85,1.62
0.0007033333333333353,0.02,-0.02,1.09,6.81,3.65,-0.26
0.0007066666666666687,0.08,0.0,1.08,-1.18,-0.12,-2.58
0.0007100000000000021,0.09,-0.0,1.02,-1.47,2.7,0.4
0.0007133333333333355,0.09,-0.0,1.0,-0.87,4.4,1.88
0.0007166666666666688,0.07,-0.01,0.99,0.95,1.79,0.9
0.0007200000000000022,0.08,-0.01,0.99,2.55,4.12,1.54
0.0007233333333333356,0.05,-0.02,1.02,1.97,4.2,1.05
0.000726666666666669,0.05,-0.02,1.02,1.02,4.2,0.06
0.0007300000000000023,0.07,-0.02,1.02,-0.32,7.73,0.96
0.0007333333333333357,0.05,-0.02,1.01,-0.43,6.31,-0.34
0.0007366666666666691,0.06,-0.01,1.0,0.6,4.5,-0.02
0.0007400000000000025,0.07,-0.02,1.01,1.33,2.32,1.22
0.0007433333333333359,0.06,-0.02,1.01,0.93,-0.82,1.25
0.0007466666666666692,0.07,-0.02,1.0,2.78,0.17,1.39
0.0007500000000000026,0.05,-0.01,1.0,2.93,2.11,0.29
0.000753333333333336,0.05,-0.01,1.01,4.34,3.45,-1.01
0.0007566666666666694,0.09,-0.01,0.99,4.82,6.81,0.93
0.0007600000000000028,0.04,-0.01,1.03,3.34,3.08,-1.66
0.0007633333333333361,0.05,-0.01,1.03,3.4,1.18,-2.27
0.0007666666666666695,0.06,0.01,0.99,5.82,4.95,0.85
0.0007700000000000029,0.07,-0.0,1.02,0.81,-0.03,-0.76
0.0007733333333333363,0.06,-0.0,1.01,1.86,-1.02,-1.28
0.0007766666666666696,0.06,0.01,0.99,2.72,-0.99,-1.51
0.000780000000000003,0.06,0.0,0.99,3.66,-1.47,-2.23
0.0007833333333333364,0.09,0.01,0.98,5.8,-1.77,-1.08
0.0007866666666666698,0.1,0.01,0.96,9.15,-3.82,0.95
0.0007900000000000032,0.12,0.01,0.94,13.3,-6.35,2.79
0.0007933333333333365,0.12,0.0,0.97,23.85,-6.0,12.31
0.0007966666666666699,0.13,0.0,1.02,19.47,-19.82,4.17
0.0008000000000000033,0.11,0.04,1.05,16.18,-15.08,4.7
0.0008033333333333367,0.09,0.03,1.09,13.08,-9.88,2.02
0.00080666666666667,0.12,0.05,1.08,7.45,3.19,0.95
0.0008100000000000034,0.14,0.05,1.1,5.22,10.35,3.98
0.0008133333333333368,0.11,0.05,1.06,1.65,11.24,4.81
0.0008166666666666702,0.09,0.04,1.03,2.35,5.62,4.81
0.0008200000000000036,0.05,0.03,1.04,2.47,1.28,3.62
0.0008233333333333369,0.05,0.03,1.05,0.85,-1.6,2.89
0.0008266666666666703,0.07,0.02,1.03,0.21,-1.1,3.5
0.0008300000000000037,0.09,0.02,1.03,0.03,5.74,5.95
0.0008333333333333371,0.05,0.02,1.03,0.99,7.34,5.01
0.0008366666666666705,0.02,0.03,1.05,0.67,5.97,2.26
0.0008400000000000038,0.04,0.03,1.05,-1.89,4.79,1.07
0.0008433333333333372,0.03,0.03,1.06,-3.04,3.15,0.64
0.0008466666666666706,0.04,0.04,1.03,-3.56,1.48,-0.09
0.000850000000000004,0.04,0.03,1.03,-4.24,0.47,-1.62
0.0008533333333333373,0.05,0.03,1.03,-4.87,3.01,-2.38
0.0008566666666666707,0.03,0.03,1.01,-4.99,3.01,-3.66
0.0008600000000000041,0.05,0.02,1.01,-4.93,3.1,-3.82
0.0008633333333333375,0.08,0.04,0.99,-3.88,3.39,-1.89
0.0008666666666666709,0.07,0.02,1.01,-3.31,3.79,-0.69
0.0008700000000000042,0.07,0.01,1.03,-5.34,2.53,1.53
0.0008733333333333376,0.05,0.02,1.0,-6.43,0.93,0.14
0.000876666666666671,0.05,0.03,0.99,-6.66,2.37,-0.17
0.0008800000000000044,0.06,0.02,0.99,-5.88,1.47,-0.63
0.0008833333333333377,0.03,0.02,1.0,-6.23,-3.89,-3.27
0.0008866666666666711,0.06,0.02,1.0,-5.24,-0.84,-1.97
0.0008900000000000045,0.03,0.0,1.01,-6.26,-2.24,-4.12
0.0008933333333333379,0.05,0.01,0.99,-4.95,-2.09,-5.19
0.0008966666666666713,0.08,0.0,0.98,-3.13,-0.35,-2.93
0.0009000000000000046,0.09,0.0,0.99,-1.42,-3.5,-1.08
0.000903333333333338,0.08,0.0,0.99,-1.65,-2.76,0.38
0.0009066666666666714,0.06,-0.0,1.01,-1.48,-3.3,0.29
0.0009100000000000048,0.06,-0.01,1.01,-0.79,-2.18,0.35
0.0009133333333333382,0.07,0.0,1.0,0.76,-2.44,0.72
0.0009166666666666715,0.06,0.01,1.01,2.63,-3.97,1.02
0.0009200000000000049,0.07,-0.0,1.02,2.67,-4.69,1.07
0.0009233333333333383,0.06,-0.0,1.03,2.34,-5.85,0.34
0.0009266666666666717,0.08,0.0,1.03,3.1,-5.63,1.71
0.000930000000000005,0.08,0.0,1.01,3.77,-7.66,4.08
0.0009333333333333384,0.07,-0.01,1.03,7.83,-21.25,-3.92
0.0009366666666666718,-0.0,0.04,1.11,7.44,-8.41,-0.34
0.0009400000000000052,0.22,0.02,0.99,-1.5,-11.54,4.93
0.0009433333333333386,0.13,0.04,1.05,3.83,-10.11,3.31
0.0009466666666666719,0.05,0.02,1.06,-2.85,-9.13,-0.03
0.0009500000000000053,0.08,0.03,1.05,-3.42,0.85,-0.58
0.0009533333333333387,0.06,0.02,1.06,-5.45,2.12,-3.39
0.0009566666666666721,0.02,0.04,1.08,-6.02,1.44,-4.55
0.0009600000000000054,0.03,0.04,1.06,-7.3,-4.92,-4.4
0.0009633333333333388,0.07,0.02,1.04,-3.68,3.42,0.15
0.0009666666666666722,0.07,0.02,1.07,-5.73,-1.33,-0.29
0.0009700000000000056,0.06,0.01,1.05,-6.55,-1.11,-1.01
0.000973333333333339,0.07,0.0,1.03,-6.11,2.05,-0.72
0.0009766666666666723,0.03,0.0,1.02,-5.92,3.15,-3.56
0.0009800000000000056,0.04,0.0,1.02,-6.21,4.11,-5.71
0.0009833333333333389,0.08,-0.0,1.02,-6.27,4.34,-4.95
0.0009866666666666721,0.07,-0.0,0.99,-6.29,1.82,-4.32
0.0009900000000000054,0.06,0.0,0.99,-4.2,0.31,-4.75
0.0009933333333333387,0.08,0.0,1.0,-2.56,1.88,-4.32
0.000996666666666672,0.09,0.0,1.0,-2.37,3.54,-4.05
0.0010000000000000052,0.06,0.0,1.02,-3.39,2.87,-4.55
0.0010033333333333385,0.08,0.01,1.03,-4.66,1.77,-4.5
0.0010066666666666718,0.08,0.01,1.0,-5.01,-0.4,-5.05
0.001010000000000005,0.06,0.01,0.99,-3.54,1.42,-6.23
0.0010133333333333383,0.08,0.01,1.04,-7.36,-6.35,-13.05
0.0010166666666666716,0.16,0.02,1.02,-4.82,2.23,-9.97
0.0010200000000000048,0.17,0.04,1.03,-3.18,7.59,-3.8
0.0010233333333333381,0.12,0.04,1.05,-5.83,4.64,-3.36
0.0010266666666666714,0.12,0.05,1.06,-5.86,2.44,-2.87
0.0010300000000000047,0.11,0.04,1.08,-8.43,0.14,-4.0
0.001033333333333338,0.13,0.05,1.08,-9.79,1.45,-2.37
0.0010366666666666712,0.11,0.05,1.08,-14.03,0.6,-2.78
0.0010400000000000045,0.13,0.04,1.03,-13.34,2.7,-0.72
0.0010433333333333377,0.11,0.02,1.04,-12.49,4.35,0.7
0.001046666666666671,0.11,0.01,1.03,-13.77,2.56,0.93
0.0010500000000000043,0.1,-0.01,1.01,-14.27,0.24,2.26
0.0010533333333333375,0.09,-0.03,1.01,-17.65,-6.18,-1.39
0.0010566666666666708,0.07,0.04,0.97,-14.17,9.42,6.61
0.001060000000000004,0.08,-0.01,0.98,-16.6,-6.11,2.06
0.0010633333333333374,0.07,-0.04,0.99,-14.4,0.06,4.52
0.0010666666666666706,0.03,-0.06,1.01,-13.56,-5.47,0.69
0.0010700000000000039,0.07,-0.04,1.0,-19.73,-19.69,-12.15
0.0010733333333333372,0.04,-0.07,0.98,-18.9,-13.33,-5.97
0.0010766666666666704,0.13,-0.04,0.94,-14.31,-0.95,5.6
0.0010800000000000037,0.07,-0.06,0.97,-10.87,-0.37,7.74
0.001083333333333337,0.02,-0.07,0.99,-11.54,-4.5,0.56
0.0010866666666666702,0.02,-0.08,1.02,-11.07,-5.47,-2.82
0.0010900000000000035,0.04,-0.07,1.0,-10.34,-3.4,-5.54
0.0010933333333333368,0.02,-0.11,1.09,-15.16,-9.85,-9.21
0.00109666666666667,0.03,-0.07,1.07,-18.49,-10.76,-14.6
0.0011000000000000033,0.06,-0.11,1.08,-17.28,-13.42,-11.15
0.0011033333333333366,0.14,-0.06,0.95,-17.24,-8.78,-7.95
0.0011066666666666699,0.15,-0.08,0.95,-8.82,4.53,3.56
0.0011100000000000031,0.02,-0.1,1.01,-12.08,-0.84,-4.12
0.0011133333333333364,0.09,-0.09,0.99,-7.79,-3.76,-5.8
0.0011166666666666697,0.1,-0.06,1.02,-9.59,-5.86,-4.84
0.001120000000000003,0.13,-0.08,0.95,-7.31,2.03,0.34
0.0011233333333333362,0.16,-0.1,1.04,-9.68,-14.6,-8.58
0.0011266666666666695,0.14,-0.06,1.0,-9.44,-7.97,-5.18
0.0011300000000000027,0.12,-0.08,1.0,-6.32,-0.81,-0.63
0.001133333333333336,0.09,-0.09,1.03,-10.32,-4.5,-4.61
0.0011366666666666693,0.11,-0.09,0.98,-10.34,-4.76,-5.59
0.0011400000000000026,0.1,-0.09,0.98,-9.42,2.02,-2.17
0.0011433333333333358,0.13,-0.11,0.98,-5.42,2.41,-0.46
0.001146666666666669,0.13,-0.09,0.98,-4.47,5.8,0.78
0.0011500000000000024,0.1,-0.11,1.05,-6.09,-0.85,-0.09
0.0011533333333333356,0.11,-0.09,1.02,-8.78,-2.18,1.42
0.001156666666666669,0.13,-0.1,1.02,-8.72,-4.46,1.53
0.0011600000000000022,0.11,-0.1,1.0,-7.59,-4.47,2.0
0.0011633333333333354,0.12,-0.12,0.99,-6.34,-3.07,2.93
0.0011666666666666687,0.09,-0.13,0.99,-7.19,-2.79,0.95
0.001170000000000002,0.08,-0.14,0.96,-5.15,0.58,0.29
0.0011733333333333353,-0.01,-0.15,0.97,-6.64,-1.76,-3.04
0.0011766666666666685,0.08,-0.15,0.96,-0.47,1.62,0.29
0.0011800000000000018,0.06,-0.15,0.93,3.47,1.42,-1.59
0.001183333333333335,0.09,-0.15,0.95,6.66,1.68,-1.44
0.0011866666666666683,0.1,-0.15,0.97,8.23,5.16,0.87
0.0011900000000000016,0.11,-0.15,0.98,7.11,5.68,1.22
0.0011933333333333349,0.04,-0.14,1.01,5.86,3.04,-1.48
0.0011966666666666681,0.04,-0.14,1.01,4.35,0.63,-3.76
0.0012000000000000014,0.1,-0.13,0.99,5.37,2.79,-2.18
0.0012033333333333347,0.09,-0.13,1.01,5.6,3.25,-1.53
0.001206666666666668,0.05,-0.13,1.02,4.84,0.38,-6.21
0.0012100000000000012,0.11,-0.12,1.0,7.27,6.55,-3.6
0.0012133333333333345,0.11,-0.12,1.0,7.91,8.6,-1.36
0.0012166666666666678,0.09,-0.11,1.01,8.2,0.41,-2.87
0.001220000000000001,0.11,-0.1,1.02,7.68,-4.55,-2.08
0.0012233333333333343,0.11,-0.1,1.01,8.6,-2.84,-0.58
