time,accl_x,accl_y,accl_z,gyro_x,gyro_y,gyro_z
0.0,-0.06,0.08,1.06,-13.22,-28.9,-0.89
3.3333333333333333e-06,0.03,0.04,0.99,-14.79,-33.95,-9.33
6.666666666666667e-06,-0.02,-0.0,1.11,-11.91,-29.1,-6.64
9.999999999999999e-06,0.09,0.03,0.97,-6.92,-19.74,3.05
1.3333333333333333e-05,0.06,0.01,0.99,-1.88,-15.53,10.61
1.6666666666666667e-05,0.05,0.03,0.96,1.27,-17.63,9.76
2e-05,0.02,0.0,1.01,2.61,-18.26,7.56
2.3333333333333336e-05,0.02,0.0,1.02,1.65,-15.77,6.0
2.666666666666667e-05,0.03,-0.0,1.01,3.18,-11.83,3.79
3.0000000000000004e-05,0.03,-0.01,1.07,2.96,-6.75,4.05
3.3333333333333335e-05,0.16,0.0,1.01,0.35,-9.5,1.98
3.6666666666666666e-05,0.15,0.01,1.02,1.45,-9.62,3.53
3.9999999999999996e-05,0.13,0.02,1.04,2.6,1.37,13.48
4.333333333333333e-05,0.07,-0.01,1.06,2.11,2.85,13.24
4.666666666666666e-05,0.06,-0.0,1.07,0.08,6.37,13.77
4.999999999999999e-05,0.06,0.01,1.06,-0.29,8.26,14.66
5.333333333333332e-05,0.01,-0.01,1.06,-1.68,1.59,11.16
5.666666666666665e-05,0.03,-0.01,1.05,-3.51,-0.09,9.82
5.999999999999998e-05,0.05,-0.02,1.06,-4.21,-2.52,10.17
6.333333333333332e-05,0.05,-0.01,1.01,-3.21,-1.77,10.17
6.666666666666666e-05,0.03,-0.02,0.99,-1.65,-2.23,8.99
7e-05,0.02,-0.02,0.99,0.6,-2.44,7.04
7.333333333333333e-05,0.07,-0.02,0.99,2.44,3.86,8.09
7.666666666666667e-05,0.06,-0.02,1.01,2.98,5.36,9.68
8e-05,0.08,-0.01,1.03,0.6,11.24,12.87
8.333333333333334e-05,0.07,-0.01,1.05,-1.76,6.82,12.58
8.666666666666668e-05,0.04,-0.01,1.05,-4.99,-0.17,12.03
9.000000000000002e-05,0.08,-0.02,1.02,-5.37,-0.05,15.63
9.333333333333336e-05,0.05,-0.03,1.01,-4.24,-4.85,14.7
9.66666666666667e-05,0.01,-0.04,1.0,-3.04,-6.84,11.77
0.00010000000000000003,0.05,-0.04,1.03,-2.67,-4.17,11.02
0.00010333333333333337,0.03,-0.04,1.01,-4.67,-1.57,9.3
0.00010666666666666671,0.11,-0.04,0.99,-3.25,3.22,11.16
0.00011000000000000004,0.12,-0.02,0.96,0.69,7.16,17.22
0.00011333333333333338,0.02,-0.02,0.98,0.4,6.52,16.26
0.00011666666666666672,0.05,-0.05,0.98,3.31,9.44,17.33
0.00012000000000000006,0.05,-0.05,1.0,4.69,7.6,18.03
0.0001233333333333334,0.05,-0.03,1.01,2.76,11.31,20.41
0.00012666666666666672,-0.04,-0.03,1.04,2.05,6.12,16.34
0.00013000000000000004,-0.04,-0.02,1.04,0.79,4.64,11.92
0.00013333333333333337,-0.04,-0.02,1.04,0.7,2.31,7.4
0.0001366666666666667,-0.02,-0.02,1.04,0.29,2.99,6.26
0.00014000000000000001,-0.01,-0.02,1.04,0.41,-0.82,3.6
0.00014333333333333334,0.0,-0.02,1.0,0.92,-3.3,1.73
0.00014666666666666666,0.04,-0.02,1.01,0.11,-0.58,2.37
0.00015,0.07,-0.02,1.0,2.18,1.53,4.6
0.0001533333333333333,0.03,-0.01,1.01,2.76,1.22,3.44
0.00015666666666666663,0.04,-0.02,1.04,1.19,-2.73,1.5
0.00015999999999999996,0.02,-0.02,1.04,-1.27,-5.77,-0.44
0.00016333333333333328,-0.0,-0.01,1.05,-1.28,-9.48,-3.42
0.0001666666666666666,0.03,0.01,1.03,-13.01,-18.95,-13.98
0.00016999999999999993,0.1,0.02,0.95,-3.63,-8.58,-2.58
0.00017333333333333325,0.08,-0.01,1.0,-1.37,-4.95,0.66
0.00017666666666666658,0.08,-0.02,1.02,0.27,-1.07,3.48
0.0001799999999999999,0.06,-0.02,1.01,0.23,-0.67,2.89
0.00018333333333333323,0.07,-0.02,1.02,2.99,0.95,5.79
0.00018666666666666655,0.03,-0.03,1.0,3.83,1.74,5.07
0.00018999999999999987,0.01,-0.02,1.01,3.74,0.0,2.31
0.0001933333333333332,0.03,-0.01,1.01,5.48,4.66,3.94
0.00019666666666666652,0.05,-0.01,1.04,3.98,6.85,3.54
0.00019999999999999985,0.03,-0.02,1.04,3.53,10.09,3.83
0.00020333333333333317,0.03,-0.02,1.06,2.73,8.99,4.92
0.0002066666666666665,0.02,-0.01,1.07,0.29,5.37,3.34
0.00020999999999999982,0.02,-0.02,1.05,-1.36,1.5,2.52
0.00021333333333333314,0.05,-0.02,1.03,-1.31,1.3,4.58
0.00021666666666666647,0.02,-0.03,1.02,-1.51,2.0,3.24
0.0002199999999999998,-0.0,-0.03,1.03,-1.5,2.84,-0.05
0.00022333333333333311,0.02,-0.03,1.0,0.15,4.87,-0.95
0.00022666666666666644,0.02,-0.02,1.0,0.96,4.4,-2.66
0.00022999999999999976,0.06,-0.01,1.03,-0.24,4.35,-2.09
0.0002333333333333331,0.1,-0.01,1.03,1.19,4.03,1.1
0.0002366666666666664,0.05,-0.0,1.07,-5.65,-1.68,1.97
0.00023999999999999974,0.1,-0.03,1.04,-2.03,-7.01,2.31
0.00024333333333333306,0.06,-0.01,1.03,-0.09,-6.29,4.61
0.0002466666666666664,0.05,-0.02,1.01,1.51,-5.69,3.24
0.00024999999999999973,0.06,-0.01,1.01,1.28,-2.95,2.67
0.00025333333333333306,0.05,-0.02,1.02,2.44,-5.5,0.46
0.0002566666666666664,0.02,-0.02,1.05,1.34,-13.47,-5.56
0.0002599999999999997,0.0,-0.01,1.06,1.22,-25.22,-13.65
0.00026333333333333303,0.01,-0.01,1.03,4.26,-36.21,-19.1
0.00026666666666666635,0.22,0.04,0.75,8.5,-17.18,-5.15
0.0002699999999999997,0.27,-0.01,0.98,4.32,-19.62,-5.05
0.000273333333333333,0.26,0.0,1.01,5.68,4.85,15.47
0.0002766666666666663,0.06,-0.02,1.02,4.24,-3.39,12.79
0.00027999999999999965,0.04,-0.02,1.05,2.89,-8.55,9.1
0.000283333333333333,0.06,-0.02,1.04,2.73,-5.97,8.53
0.0002866666666666663,0.05,-0.03,1.04,2.14,-5.57,7.15
0.0002899999999999996,0.05,-0.02,1.02,0.6,-6.5,6.02
0.00029333333333333295,0.05,-0.02,0.97,4.26,-4.82,6.18
0.00029666666666666627,0.03,-0.02,0.96,7.85,-4.72,5.44
0.0002999999999999996,0.05,-0.02,0.96,8.6,-4.52,4.53
0.0003033333333333329,0.05,-0.03,1.01,7.02,-2.56,3.86
0.00030666666666666624,0.06,-0.02,1.0,7.69,-1.11,3.74
0.00030999999999999957,0.06,-0.01,1.0,5.95,1.11,3.82
0.0003133333333333329,0.06,-0.01,1.01,6.2,2.35,3.76
0.0003166666666666662,0.07,0.0,1.02,5.31,3.83,4.87
0.00031999999999999954,0.08,0.01,1.01,4.79,6.0,7.54
0.00032333333333333286,0.04,0.01,1.03,3.6,5.04,6.35
0.0003266666666666662,-0.01,-0.01,1.01,6.66,8.99,8.98
0.0003299999999999995,0.07,-0.0,1.03,5.73,4.4,5.5
0.00033333333333333283,0.05,0.0,1.04,5.05,3.74,4.32
0.00033666666666666616,0.05,0.01,1.03,5.77,0.46,4.14
0.0003399999999999995,0.05,0.0,1.04,5.18,-2.0,2.72
0.0003433333333333328,0.05,0.02,1.03,1.31,-3.07,1.83
0.00034666666666666613,0.06,0.01,1.02,0.76,-1.68,1.82
0.00034999999999999945,0.04,0.02,1.01,0.4,-1.79,0.52
0.0003533333333333328,0.06,0.01,1.0,0.66,-0.52,-0.11
0.0003566666666666661,0.05,0.02,1.01,1.34,-0.58,-1.08
0.0003599999999999994,0.05,0.02,1.01,1.51,-0.84,-2.56
0.00036333333333333275,0.08,0.03,1.03,0.64,0.35,-2.87
0.0003666666666666661,0.08,0.03,1.02,1.05,0.96,-1.82
0.0003699999999999994,0.09,0.03,1.03,0.32,0.75,0.73
0.0003733333333333327,0.08,0.01,1.04,-1.31,-2.12,1.66
0.00037666666666666605,0.08,0.02,1.02,-0.95,-1.94,3.36
0.00037999999999999937,0.06,0.02,1.01,-0.46,-5.54,3.44
0.0003833333333333327,0.07,0.02,1.02,0.37,-6.06,3.94
0.000386666666666666,0.06,0.02,1.03,0.49,-4.17,2.85
0.00038999999999999934,0.06,0.01,1.02,-1.25,-0.66,2.14
0.00039333333333333267,0.04,0.01,1.03,-0.9,-0.21,0.87
0.000396666666666666,0.04,0.02,1.01,-1.3,1.34,-1.04
0.0003999999999999993,0.08,0.01,1.03,-0.17,3.68,-0.03
0.00040333333333333264,0.05,0.01,1.03,0.43,0.4,-0.96
0.00040666666666666596,0.04,0.02,1.03,0.02,-1.63,-2.7
0.0004099999999999993,0.06,0.02,1.03,-0.78,-1.02,-3.31
0.0004133333333333326,0.1,0.02,1.02,0.46,0.29,0.09
0.00041666666666666593,0.09,0.01,1.03,1.27,0.37,2.9
0.00041999999999999926,0.04,0.0,1.03,-0.47,-1.71,0.99
0.0004233333333333326,0.05,0.02,1.03,-0.61,-0.89,0.06
0.0004266666666666659,0.06,0.0,1.01,1.18,1.24,-0.17
0.00042999999999999923,0.03,0.01,1.02,1.37,-1.33,-3.39
0.00043333333333333255,0.06,0.01,1.01,-0.12,0.18,-3.16
0.0004366666666666659,0.09,0.01,1.01,2.89,1.73,0.18
0.0004399999999999992,0.07,0.05,1.06,4.69,-1.36,0.37
0.0004433333333333325,0.08,-0.01,1.02,7.8,4.34,1.68
0.00044666666666666585,0.05,0.0,1.04,0.63,-5.02,-2.84
0.0004499999999999992,0.06,-0.0,1.0,4.02,-1.62,-2.53
0.0004533333333333325,0.07,0.02,1.02,3.68,0.92,-3.18
0.0004566666666666658,0.07,0.02,1.02,2.67,-0.31,-3.28
0.00045999999999999915,0.09,0.02,1.04,2.98,0.87,-1.19
0.00046333333333333247,0.07,0.02,1.03,2.15,-1.92,-0.82
0.0004666666666666658,0.08,0.01,1.02,1.57,-3.54,-0.34
0.0004699999999999991,0.07,0.01,1.03,-0.92,-3.73,-0.78
0.00047333333333333244,0.06,0.01,1.02,-2.99,-1.74,-1.31
0.00047666666666666577,0.05,0.01,1.01,-2.61,1.28,-1.97
0.0004799999999999991,0.08,0.0,1.02,-2.61,5.53,-0.06
0.0004833333333333324,0.04,0.0,1.02,-2.47,5.15,-1.25
0.00048666666666666574,0.01,0.0,1.02,-1.56,4.72,-3.79
0.0004899999999999991,0.04,0.0,1.02,-1.69,2.84,-5.19
0.0004933333333333325,0.06,0.02,1.02,0.29,0.98,-5.11
0.0004966666666666659,0.08,0.01,1.03,-0.44,-0.85,-3.8
0.0004999999999999993,0.07,0.01,1.04,0.56,-1.86,-2.26
0.0005033333333333326,0.09,0.01,1.04,-1.6,-3.08,-2.08
0.000506666666666666,0.07,0.01,1.01,-1.48,-4.58,-3.16
0.0005099999999999994,0.08,0.01,1.02,-0.63,-2.29,-2.75
0.0005133333333333328,0.06,0.01,0.99,-0.03,-1.65,-3.62
0.0005166666666666661,0.07,0.01,0.99,0.53,-1.5,-4.64
0.0005199999999999995,0.08,0.01,1.0,0.93,-1.79,-4.6
0.0005233333333333329,0.1,0.01,1.0,0.75,-4.34,-3.28
0.0005266666666666663,0.09,0.01,0.99,0.61,-7.51,-1.37
0.0005299999999999997,0.1,0.01,0.99,-1.16,-5.24,0.27
0.000533333333333333,0.14,0.01,0.97,0.61,0.7,4.26
0.0005366666666666664,0.1,0.01,1.01,0.49,0.05,5.01
0.0005399999999999998,0.08,0.02,1.02,-0.9,-2.64,4.46
0.0005433333333333332,0.08,0.03,1.02,1.02,-5.57,3.01
0.0005466666666666665,0.05,0.02,1.01,1.8,-5.79,1.48
0.0005499999999999999,0.06,0.02,1.03,1.01,-4.49,-0.34
0.0005533333333333333,0.09,0.0,1.04,0.2,1.88,0.84
0.0005566666666666667,0.08,0.01,1.0,2.31,1.89,0.84
0.0005600000000000001,0.08,0.02,1.0,4.05,0.82,1.24
0.0005633333333333334,0.09,0.01,1.0,5.11,-0.9,2.7
0.0005666666666666668,0.09,0.01,1.02,4.34,-1.08,3.16
0.0005700000000000002,0.06,0.01,1.02,4.23,-1.5,2.78
0.0005733333333333336,0.07,0.01,1.01,4.78,-0.37,2.34
0.000576666666666667,0.05,0.01,1.03,5.47,0.14,1.51
0.0005800000000000003,0.08,0.02,1.03,4.61,1.92,0.7
0.0005833333333333337,0.07,0.02,1.04,3.6,0.49,-0.26
0.0005866666666666671,0.06,0.03,1.03,5.15,0.47,-0.4
0.0005900000000000005,0.07,0.03,1.03,5.63,0.23,-0.46
0.0005933333333333338,0.08,0.04,1.04,3.98,0.63,0.03
0.0005966666666666672,0.06,0.04,1.08,2.72,-1.25,-0.78
0.0006000000000000006,0.05,0.04,1.07,0.12,-2.89,-2.81
0.000603333333333334,0.07,0.04,1.06,-1.65,-2.18,-3.44
0.0006066666666666674,0.06,0.04,1.05,-2.37,-2.2,-4.41
0.0006100000000000007,0.08,0.04,1.05,-2.82,-0.49,-3.59
0.0006133333333333341,0.09,0.04,1.02,-3.27,-0.11,-2.35
0.0006166666666666675,0.09,0.04,1.02,-3.1,2.61,-1.18
0.0006200000000000009,0.08,0.03,1.02,-2.32,1.74,-1.07
0.0006233333333333342,0.09,0.03,1.02,-1.59,0.89,-0.63
0.0006266666666666676,0.08,0.03,1.04,-1.37,-1.18,-0.84
0.000630000000000001,0.06,0.02,1.03,-2.15,-1.92,-1.33
0.0006333333333333344,0.06,0.02,1.02,-2.6,-1.92,-2.66
0.0006366666666666678,0.04,0.02,0.99,0.38,-2.18,-5.02
0.0006400000000000011,0.08,0.03,0.94,3.22,0.02,-5.31
0.0006433333333333345,0.06,0.01,0.99,5.28,-5.11,-7.48
0.0006466666666666679,0.06,0.01,1.0,3.91,-5.95,-8.26
0.0006500000000000013,0.11,0.01,1.01,4.12,-1.83,-2.9
0.0006533333333333346,0.07,0.01,1.03,3.22,-1.86,-1.88
0.000656666666666668,0.05,0.02,1.0,3.27,-1.73,-3.65
0.0006600000000000014,0.06,0.02,0.99,3.11,-0.6,-3.37
0.0006633333333333348,0.03,0.02,0.99,3.74,0.81,-5.25
0.0006666666666666682,0.04,0.02,1.0,2.79,-1.08,-8.05
0.0006700000000000015,0.07,0.04,0.98,4.06,-0.78,-9.57
0.0006733333333333349,0.11,0.04,0.99,6.26,2.11,-8.95
0.0006766666666666683,0.12,0.05,1.04,5.57,3.24,-6.87
0.0006800000000000017,0.12,0.05,1.05,3.39,4.26,-5.89
0.000683333333333335,0.13,0.05,1.07,1.28,4.81,-3.68
0.0006866666666666684,0.11,0.05,1.06,-1.68,3.11,-2.09
0.0006900000000000018,0.11,0.05,1.02,-2.79,1.92,-0.89
0.0006933333333333352,0.09,0.04,1.0,-1.77,0.81,-0.63
0.0006966666666666686,0.06,0.03,0.99,-1.57,0.79,-1.01
0.0007000000000000019,0.08,0.03,0.97,-0.2,1.74,-0.87
0.0007033333333333353,0.06,0.03,0.95,2.84,3.31,-1.66
0.0007066666666666687,0.06,0.02,0.96,5.19,4.11,-2.27
0.0007100000000000021,0.04,0.03,0.99,6.98,1.77,-4.24
0.0007133333333333355,0.06,0.05,1.0,8.32,2.0,-5.04
0.0007166666666666688,0.07,0.04,1.0,8.06,1.34,-5.48
0.0007200000000000022,0.06,0.06,1.01,6.72,1.88,-6.18
0.0007233333333333356,0.09,0.06,1.0,8.84,4.58,-3.86
0.000726666666666669,0.08,0.05,1.02,7.82,3.11,-3.33
0.0007300000000000023,0.06,0.07,1.02,7.94,2.69,-2.82
0.0007333333333333357,0.06,0.06,1.03,7.63,0.17,-4.05
0.0007366666666666691,0.01,0.07,1.0,8.4,-4.18,-8.08
0.0007400000000000025,0.06,0.07,1.01,10.41,-3.86,-7.54
0.0007433333333333359,0.07,0.08,1.0,11.48,-3.76,-7.15
0.0007466666666666692,0.07,0.1,1.02,10.46,-4.82,-7.62
0.0007500000000000026,0.09,0.12,1.04,10.2,-5.27,-7.76
0.000753333333333336,0.12,0.1,1.04,8.67,-1.86,-6.66
0.0007566666666666694,0.11,0.11,1.06,6.79,-0.67,-5.28
0.0007600000000000028,0.12,0.11,1.06,4.69,-0.55,-4.2
0.0007633333333333361,0.12,0.1,1.03,5.16,-1.24,-1.48
0.0007666666666666695,0.11,0.11,1.02,4.93,-1.91,-0.18
0.0007700000000000029,0.11,0.11,1.04,4.75,-0.47,1.88
0.0007733333333333363,0.12,0.11,1.04,2.7,1.36,3.34
0.0007766666666666696,0.06,0.1,1.07,0.53,-0.49,2.09
0.000780000000000003,0.07,0.09,1.06,-0.38,-0.32,2.27
0.0007833333333333364,0.06,0.09,1.04,-0.29,-0.75,0.96
0.0007866666666666698,0.07,0.08,1.04,1.02,-1.28,-0.02
0.0007900000000000032,0.08,0.09,1.04,-1.11,0.6,0.2
0.0007933333333333365,0.07,0.08,1.05,-2.41,2.66,1.42
0.0007966666666666699,0.05,0.07,1.05,-2.82,1.65,1.15
0.0008000000000000033,0.07,0.07,1.03,-3.18,0.72,1.37
0.0008033333333333367,0.07,0.07,1.02,-2.53,0.43,1.94
0.00080666666666667,0.04,0.07,1.03,-2.34,-0.44,0.72
0.0008100000000000034,0.06,0.08,1.02,-2.92,1.82,-0.66
0.0008133333333333368,0.11,0.08,1.03,-2.61,6.75,1.88
0.0008166666666666702,0.06,0.08,1.01,-2.75,5.83,1.68
0.0008200000000000036,0.05,0.06,1.01,-2.06,2.72,-0.85
0.0008233333333333369,0.04,0.07,1.02,-2.5,1.07,-2.15
0.0008266666666666703,0.07,0.07,1.0,-1.83,2.11,-1.74
0.0008300000000000037,0.09,0.07,1.01,-2.4,2.55,-1.21
0.0008333333333333371,0.11,0.08,1.0,-1.59,3.47,1.34
0.0008366666666666705,0.1,0.08,1.0,-1.92,4.31,2.2
0.0008400000000000038,0.08,0.07,1.0,-2.43,3.65,3.45
0.0008433333333333372,0.07,0.07,1.0,-4.26,6.75,5.53
0.0008466666666666706,0.01,0.07,0.99,-2.46,0.4,2.79
0.000850000000000004,0.02,0.07,0.96,-1.6,0.14,-0.31
0.0008533333333333373,0.05,0.07,0.96,0.95,1.36,-0.4
0.0008566666666666707,0.05,0.07,0.98,2.15,1.31,-1.02
0.0008600000000000041,0.04,0.07,0.98,2.49,-0.49,-2.15
0.0008633333333333375,0.06,0.07,1.0,3.02,-0.99,-1.79
0.0008666666666666709,0.08,0.07,1.0,2.85,-1.44,-0.66
0.0008700000000000042,0.07,0.07,1.0,2.79,-0.47,0.69
0.0008733333333333376,0.06,0.07,0.99,2.49,-0.9,1.16
0.000876666666666671,0.06,0.07,1.0,1.77,0.29,2.73
0.0008800000000000044,0.08,0.07,0.99,1.07,0.17,4.76
0.0008833333333333377,0.08,0.08,1.0,1.88,-1.82,7.69
0.0008866666666666711,0.08,0.08,1.0,2.11,-2.63,9.37
0.0008900000000000045,0.06,0.1,1.01,2.76,-4.18,7.45
0.0008933333333333379,0.03,0.11,1.02,4.6,-2.4,2.7
0.0008966666666666713,0.07,0.12,1.04,5.31,3.56,1.18
0.0009000000000000046,0.09,0.12,1.07,4.7,6.96,1.88
0.000903333333333338,0.06,0.12,1.06,2.27,5.6,0.75
0.0009066666666666714,0.05,0.1,1.07,-1.56,1.01,-0.49
0.0009100000000000048,0.05,0.1,1.06,-2.66,0.05,0.12
0.0009133333333333382,0.06,0.09,1.03,-3.54,-0.56,0.79
0.0009166666666666715,0.05,0.09,0.99,-2.64,-1.04,-0.14
0.0009200000000000049,0.03,0.08,0.98,-0.43,-2.17,-1.94
0.0009233333333333383,0.02,0.08,0.97,1.4,-2.34,-4.79
0.0009266666666666717,0.04,0.09,0.99,2.7,-0.78,-5.74
0.000930000000000005,0.06,0.09,1.0,1.73,0.47,-6.0
0.0009333333333333384,0.09,0.1,1.01,1.73,2.79,-4.34
0.0009366666666666718,0.07,0.08,1.02,0.38,1.22,-4.73
0.0009400000000000052,0.07,0.09,1.0,-1.02,0.23,-4.67
0.0009433333333333386,0.08,0.08,1.0,0.47,-3.37,-1.86
0.0009466666666666719,0.05,0.08,1.0,0.34,-10.5,-1.76
0.0009500000000000053,0.03,0.08,1.01,0.92,-15.37,-3.91
0.0009533333333333387,0.04,0.08,1.03,0.82,-13.34,-6.18
0.0009566666666666721,0.06,0.07,1.04,-0.85,-8.4,-7.63
0.0009600000000000054,0.06,0.07,1.03,-1.3,-3.88,-9.3
0.0009633333333333388,0.11,0.07,1.01,-0.55,0.92,-8.7
0.0009666666666666722,0.11,0.07,1.01,0.34,1.47,-6.87
0.0009700000000000056,0.11,0.08,1.02,0.17,-0.18,-5.6
0.000973333333333339,0.11,0.08,1.03,0.26,-1.4,-3.82
0.0009766666666666723,0.09,0.07,1.03,-0.73,-3.24,-3.11
0.0009800000000000056,0.08,0.08,1.04,-2.08,-3.28,-3.34
0.0009833333333333389,0.07,0.07,1.01,-1.15,-2.47,-3.63
0.0009866666666666721,0.06,0.07,0.99,-0.61,0.09,-4.67
