time,accl_x,accl_y,accl_z,gyro_x,gyro_y,gyro_z
0.0,0.16,0.09,1.01,-2.52,-5.33,-6.09
3.3333333333333333e-06,0.17,0.05,1.12,-9.54,-8.89,-9.51
6.666666666666667e-06,0.22,0.08,1.04,-11.04,-3.71,-3.86
9.999999999999999e-06,0.16,0.09,0.98,-6.58,6.41,7.74
1.3333333333333333e-05,0.14,0.08,0.97,-4.56,1.08,9.63
1.6666666666666667e-05,0.15,0.08,0.97,-3.73,0.06,8.02
2e-05,0.13,0.07,0.95,-2.08,5.73,7.88
2.3333333333333336e-05,0.11,0.09,0.97,-3.76,23.11,15.6
2.666666666666667e-05,0.11,0.07,1.08,-5.48,-0.95,-2.76
3.0000000000000004e-05,0.19,0.08,0.92,0.82,4.58,3.04
3.3333333333333335e-05,0.13,0.05,1.0,2.41,3.16,7.66
3.6666666666666666e-05,0.12,0.06,1.04,-0.75,-1.86,8.47
3.9999999999999996e-05,0.13,0.06,1.02,-2.49,-5.94,9.02
4.333333333333333e-05,0.12,0.07,0.99,-1.83,-8.9,8.63
4.666666666666666e-05,0.11,0.07,0.98,0.03,-7.56,7.69
4.999999999999999e-05,0.1,0.07,0.97,3.37,-4.06,4.38
5.333333333333332e-05,0.08,0.08,1.0,4.7,0.08,1.94
5.666666666666665e-05,0.11,0.08,1.01,4.46,2.49,1.34
5.999999999999998e-05,0.11,0.07,1.06,1.31,-0.46,0.27
6.333333333333332e-05,0.15,0.08,1.08,-3.05,-1.98,2.17
6.666666666666666e-05,0.18,0.08,1.05,-3.91,-0.18,6.5
7e-05,0.13,0.08,1.01,-4.0,-2.93,5.57
7.333333333333333e-05,0.15,0.07,0.97,-1.98,-2.2,5.39
7.666666666666667e-05,0.13,0.08,0.97,0.63,-0.87,3.42
8e-05,0.13,0.07,0.98,3.13,-0.18,1.63
8.333333333333334e-05,0.13,0.08,1.01,2.12,2.7,0.49
8.666666666666668e-05,0.13,0.08,1.01,1.76,2.85,-0.02
9.000000000000002e-05,0.15,0.08,1.04,0.35,3.28,0.75
9.333333333333336e-05,0.15,0.08,1.02,-0.43,0.9,2.2
9.66666666666667e-05,0.13,0.07,0.99,0.18,-2.09,1.92
0.00010000000000000003,0.09,0.05,0.96,0.76,-2.89,0.96
0.00010333333333333337,0.1,0.1,0.93,5.19,-3.53,-3.77
0.00010666666666666671,0.13,0.1,0.97,8.53,2.52,-6.66
0.00011000000000000004,0.12,0.1,1.0,10.84,4.89,-11.04
0.00011333333333333338,0.11,0.11,0.99,12.6,6.99,-14.58
0.00011666666666666672,0.07,0.1,1.0,14.4,8.02,-18.92
0.00012000000000000006,0.03,0.1,1.0,15.74,6.5,-24.75
0.0001233333333333334,0.02,0.09,1.0,15.79,10.78,-29.86
0.00012666666666666672,0.07,0.1,1.03,11.37,20.34,-31.73
0.00013000000000000004,0.08,0.11,1.02,8.49,23.6,-32.7
0.00013333333333333337,0.09,0.12,1.01,6.29,22.23,-32.34
0.0001366666666666667,0.12,0.12,1.02,4.67,18.72,-30.6
0.00014000000000000001,0.12,0.13,1.02,4.47,12.55,-27.85
0.00014333333333333334,0.14,0.15,0.99,4.98,9.02,-21.42
0.00014666666666666666,0.14,0.13,0.99,6.85,-2.96,-19.77
0.00015,0.17,0.14,1.0,6.96,-7.68,-13.57
0.0001533333333333333,0.14,0.14,1.01,8.47,-11.53,-9.3
0.00015666666666666663,0.15,0.14,1.03,7.83,-13.85,-7.82
0.00015999999999999996,0.1,0.14,1.06,-0.35,-16.78,-9.92
0.00016333333333333328,0.14,0.13,0.99,-1.6,-10.67,-6.24
0.0001666666666666666,0.15,0.15,1.0,-1.59,-6.95,-6.6
0.00016999999999999993,0.16,0.12,0.99,-0.56,-4.5,-4.53
0.00017333333333333325,0.13,0.12,1.0,1.07,-3.59,-4.78
0.00017666666666666658,0.13,0.09,1.14,-0.67,-4.85,-7.11
0.0001799999999999999,0.39,0.09,0.91,-14.73,-23.47,-20.27
0.00018333333333333323,0.1,0.09,1.02,-3.34,-5.18,-1.8
0.00018666666666666655,0.19,0.18,0.95,0.82,-3.45,0.5
0.00018999999999999987,0.16,0.14,1.01,-2.06,-9.05,0.9
0.0001933333333333332,0.14,0.13,1.03,-3.18,-11.6,1.88
0.00019666666666666652,0.14,0.12,1.02,-3.95,-11.5,1.37
0.00019999999999999985,0.13,0.13,1.0,-3.97,-8.47,-0.64
0.00020333333333333317,0.11,0.14,0.97,-0.55,-4.26,-3.44
0.0002066666666666665,0.14,0.14,0.98,0.61,2.73,-3.51
0.00020999999999999982,0.15,0.13,0.99,1.34,4.06,-2.46
0.00021333333333333314,0.17,0.13,1.02,-2.05,4.95,-0.69
0.00021666666666666647,0.18,0.14,1.02,-0.76,0.72,1.24
0.0002199999999999998,0.18,0.15,1.0,-0.31,-1.77,3.44
0.00022333333333333311,0.16,0.13,1.02,-0.2,-4.66,5.47
0.00022666666666666644,0.14,0.14,1.03,-2.12,-7.16,6.52
0.00022999999999999976,0.14,0.13,1.03,-3.66,-8.49,6.69
0.0002333333333333331,0.13,0.13,1.02,-3.57,-7.63,6.78
0.0002366666666666664,0.12,0.13,1.0,-3.05,-4.44,6.31
0.00023999999999999974,0.12,0.12,1.0,-1.54,-1.63,5.48
0.00024333333333333306,0.11,0.14,0.98,0.41,-1.5,1.95
0.0002466666666666664,0.14,0.13,1.0,2.03,0.12,1.51
0.00024999999999999973,0.11,0.13,1.02,-0.27,-2.14,-1.19
0.00025333333333333306,0.13,0.12,1.03,-2.37,-1.24,-0.93
0.0002566666666666664,0.15,0.12,1.02,-2.69,-2.2,-0.26
0.0002599999999999997,0.17,0.12,1.03,-6.18,-3.34,0.69
0.00026333333333333303,0.16,0.11,1.08,-2.96,-6.38,1.04
0.00026666666666666635,0.12,0.11,0.99,-2.21,-5.05,1.02
0.0002699999999999997,0.15,0.12,1.03,-3.83,-3.13,1.01
0.000273333333333333,0.15,0.11,1.01,-3.5,-2.66,0.75
0.0002766666666666663,0.15,0.11,1.0,-3.77,-3.24,1.22
0.00027999999999999965,0.15,0.1,0.99,-2.52,-3.65,0.52
0.000283333333333333,0.15,0.1,0.97,-0.12,-4.15,0.26
0.0002866666666666663,0.17,0.09,0.99,2.03,-5.31,0.84
0.0002899999999999996,0.17,0.08,0.99,3.68,-8.58,1.3
0.00029333333333333295,0.16,0.09,1.0,4.67,-13.59,1.74
0.00029666666666666627,0.14,0.09,1.01,3.15,-17.77,0.5
0.0002999999999999996,0.13,0.1,1.02,2.58,-20.02,-2.78
0.0003033333333333329,0.15,0.11,1.01,5.27,-13.5,-1.13
0.00030666666666666624,0.17,0.11,1.0,3.95,-12.99,-3.01
0.00030999999999999957,0.18,0.13,1.01,-0.52,-11.22,-3.89
0.0003133333333333329,0.19,0.13,1.0,-0.06,-4.67,-2.49
0.0003166666666666662,0.17,0.13,0.99,-0.61,-3.76,-3.91
0.00031999999999999954,0.17,0.13,1.01,-0.89,-5.57,-3.95
0.00032333333333333286,0.19,0.13,1.0,-1.28,-8.41,-3.33
0.0003266666666666662,0.19,0.13,1.02,-1.69,-10.24,-3.05
0.0003299999999999995,0.22,0.15,1.02,-2.63,-9.04,-1.85
0.00033333333333333283,0.21,0.15,1.02,-4.15,-8.44,-1.15
0.00033666666666666616,0.23,0.15,1.0,-3.85,-3.22,0.67
0.0003399999999999995,0.23,0.13,1.01,-0.35,2.15,3.98
0.0003433333333333328,0.19,0.1,0.99,-3.47,-0.78,1.66
0.00034666666666666613,0.19,0.11,1.0,-3.53,0.89,3.04
0.00034999999999999945,0.17,0.11,1.01,-5.19,0.09,2.63
0.0003533333333333328,0.18,0.1,1.01,-4.75,-0.23,3.59
0.0003566666666666661,0.16,0.1,0.99,-4.53,-2.81,2.27
0.0003599999999999994,0.15,0.1,0.98,-3.47,-2.98,1.68
0.00036333333333333275,0.17,0.11,0.99,-1.68,-0.84,1.71
0.0003666666666666661,0.16,0.1,0.97,-0.76,1.36,1.07
0.0003699999999999994,0.16,0.1,0.99,-0.85,2.72,-0.93
0.0003733333333333327,0.19,0.1,1.0,-0.35,6.0,-0.67
0.00037666666666666605,0.16,0.1,1.02,-1.13,5.4,-2.29
0.00037999999999999937,0.16,0.1,1.02,-0.7,3.82,-2.41
0.0003833333333333327,0.18,0.09,1.02,-0.81,1.22,-1.66
0.000386666666666666,0.19,0.08,1.0,-1.56,-0.35,-0.69
0.00038999999999999934,0.18,0.09,1.01,-1.76,-3.8,0.12
0.00039333333333333267,0.18,0.09,1.0,-1.07,-4.75,0.79
0.000396666666666666,0.17,0.09,0.99,-0.08,-4.02,0.06
0.0003999999999999993,0.17,0.09,0.99,0.03,-2.47,-1.5
0.00040333333333333264,0.18,0.08,0.99,-0.26,-0.6,-2.26
0.00040666666666666596,0.18,0.08,1.0,-1.63,-0.6,-3.37
0.0004099999999999993,0.19,0.09,0.99,-1.77,0.02,-2.47
0.0004133333333333326,0.17,0.08,0.96,-1.47,-2.84,-3.86
0.00041666666666666593,0.16,0.1,0.97,-1.07,-3.59,-5.98
0.00041999999999999926,0.19,0.11,0.99,1.04,-0.64,-6.46
0.0004233333333333326,0.21,0.1,0.99,1.62,2.02,-5.65
0.0004266666666666659,0.22,0.09,0.99,2.12,1.62,-3.73
0.00042999999999999923,0.21,0.1,0.99,3.34,0.12,-2.03
0.00043333333333333255,0.22,0.11,1.0,4.09,-2.24,-0.56
0.0004366666666666659,0.2,0.11,1.01,3.62,-5.6,0.6
0.0004399999999999992,0.18,0.12,1.03,3.37,-5.34,-1.3
0.0004433333333333325,0.2,0.13,1.03,2.53,-1.34,-1.36
0.00044666666666666585,0.2,0.12,1.03,2.08,1.65,-1.27
0.0004499999999999992,0.21,0.12,1.05,1.21,2.72,-0.66
0.0004533333333333325,0.21,0.11,1.05,-1.18,3.04,0.73
0.0004566666666666658,0.18,0.11,1.04,-2.81,-0.76,1.54
0.00045999999999999915,0.18,0.1,1.02,-2.08,-0.61,3.4
0.00046333333333333247,0.18,0.11,1.01,-1.98,-3.21,3.01
0.0004666666666666658,0.18,0.1,0.99,-1.57,-5.08,2.17
0.0004699999999999991,0.19,0.1,0.99,-0.12,-4.03,1.89
0.00047333333333333244,0.16,0.11,0.98,1.53,-3.48,-0.69
0.00047666666666666577,0.21,0.1,0.99,2.09,-0.14,-0.7
0.0004799999999999991,0.23,0.1,1.01,1.92,1.85,1.53
0.0004833333333333324,0.2,0.09,1.01,1.19,0.18,2.67
0.00048666666666666574,0.19,0.1,1.02,-0.2,-0.58,2.63
0.0004899999999999991,0.18,0.1,1.01,-0.32,-3.24,1.02
0.0004933333333333325,0.19,0.1,0.99,-1.07,-1.07,3.01
0.0004966666666666659,0.19,0.11,0.98,-2.05,-2.9,2.03
0.0004999999999999993,0.15,0.11,1.0,-0.66,-4.66,0.17
0.0005033333333333326,0.16,0.12,1.01,-1.66,-3.82,-2.31
0.000506666666666666,0.18,0.13,1.01,-1.11,-1.62,-3.73
0.0005099999999999994,0.19,0.14,1.04,-2.98,-0.23,-4.18
0.0005133333333333328,0.21,0.14,1.04,-5.69,-0.18,-3.34
0.0005166666666666661,0.22,0.13,0.99,-3.37,3.73,1.02
0.0005199999999999995,0.18,0.12,1.0,-3.3,-1.54,0.52
0.0005233333333333329,0.15,0.12,0.98,-4.66,-9.74,-3.95
0.0005266666666666663,0.17,0.13,0.97,-0.9,-11.65,-4.05
0.0005299999999999997,0.2,0.14,0.98,-0.43,-5.54,-3.8
0.000533333333333333,0.18,0.15,0.98,-0.53,-7.18,-6.21
0.0005366666666666664,0.21,0.16,1.01,-1.13,-4.38,-5.45
0.0005399999999999998,0.23,0.16,1.03,-1.37,-2.5,-3.89
0.0005433333333333332,0.24,0.16,1.0,-2.81,-2.03,-1.65
0.0005466666666666665,0.23,0.16,1.02,-2.79,-2.49,0.37
0.0005499999999999999,0.2,0.16,1.03,-3.3,-5.27,1.24
0.0005533333333333333,0.2,0.15,1.02,-3.05,-4.82,2.76
0.0005566666666666667,0.18,0.15,1.02,-3.25,-6.27,2.69
0.0005600000000000001,0.14,0.13,1.04,-4.85,-7.47,0.55
0.0005633333333333334,0.14,0.13,1.06,-8.29,-6.2,-2.23
0.0005666666666666668,0.14,0.11,1.04,-10.31,-5.57,-5.07
0.0005700000000000002,0.15,0.11,1.02,-11.62,-4.63,-7.39
0.0005733333333333336,0.18,0.1,1.0,-10.64,-1.79,-7.18
0.000576666666666667,0.19,0.1,0.98,-10.03,-2.7,-9.02
0.0005800000000000003,0.19,0.1,0.97,-9.71,-5.21,-10.6
0.0005833333333333337,0.22,0.09,0.97,-7.94,-5.4,-10.43
0.0005866666666666671,0.24,0.09,0.97,-7.01,-5.82,-9.1
0.0005900000000000005,0.27,0.08,0.96,-3.86,-1.28,-4.64
0.0005933333333333338,0.25,0.07,0.97,-4.85,-3.53,-3.73
0.0005966666666666672,0.26,0.06,0.96,-4.17,-3.5,-2.78
0.0006000000000000006,0.26,0.05,0.96,-2.61,-1.25,-0.61
0.000603333333333334,0.27,0.05,0.97,-1.62,-0.29,1.56
0.0006066666666666674,0.24,0.05,0.98,-0.6,-3.22,1.94
0.0006100000000000007,0.24,0.05,0.98,0.93,-4.99,2.18
0.0006133333333333341,0.23,0.05,0.99,1.91,-5.07,1.3
0.0006166666666666675,0.23,0.05,1.0,1.63,-2.44,0.52
0.0006200000000000009,0.23,0.05,1.01,0.72,-1.31,0.09
0.0006233333333333342,0.23,0.05,1.01,-0.12,-0.05,0.0
0.0006266666666666676,0.24,0.06,1.01,0.05,0.14,0.41
0.000630000000000001,0.24,0.06,0.99,0.06,0.27,0.79
0.0006333333333333344,0.25,0.06,1.0,0.85,0.12,1.59
0.0006366666666666678,0.26,0.07,0.99,1.82,0.41,2.61
0.0006400000000000011,0.25,0.08,1.01,2.05,-1.71,3.24
0.0006433333333333345,0.25,0.08,1.03,1.91,-3.39,3.76
0.0006466666666666679,0.25,0.09,1.04,1.01,-2.26,4.61
0.0006500000000000013,0.25,0.08,1.03,0.23,1.39,4.73
0.0006533333333333346,0.25,0.09,1.03,0.26,4.11,4.9
0.000656666666666668,0.25,0.09,1.02,-1.57,5.57,4.64
0.0006600000000000014,0.23,0.09,1.04,-3.16,2.43,2.87
0.0006633333333333348,0.24,0.09,1.02,-4.2,3.07,3.86
0.0006666666666666682,0.24,0.08,1.03,-4.46,1.1,3.89
0.0006700000000000015,0.24,0.09,1.03,-4.46,-1.4,3.79
0.0006733333333333349,0.24,0.09,1.04,-6.93,-0.21,3.42
0.0006766666666666683,0.23,0.09,1.05,-8.56,0.96,3.54
0.0006800000000000017,0.23,0.09,1.04,-9.92,2.17,3.68
0.000683333333333335,0.22,0.08,1.02,-11.02,3.44,3.6
0.0006866666666666684,0.22,0.07,0.99,-10.6,1.95,3.71
0.0006900000000000018,0.22,0.07,0.98,-9.95,1.11,4.05
0.0006933333333333352,0.22,0.07,0.98,-8.84,-0.92,3.77
0.0006966666666666686,0.23,0.07,0.98,-7.95,-1.19,3.98
0.0007000000000000019,0.23,0.06,0.99,-7.97,-0.6,4.38
0.0007033333333333353,0.23,0.06,0.99,-8.0,-0.27,3.95
0.0007066666666666687,0.21,0.05,0.96,-7.22,-0.32,3.86
0.0007100000000000021,0.2,0.04,0.96,-5.82,0.15,2.95
0.0007133333333333355,0.22,0.04,0.94,-4.21,1.94,3.48
0.0007166666666666688,0.22,0.04,0.96,-2.18,5.39,6.21
0.0007200000000000022,0.19,0.03,0.96,-2.34,0.96,3.33
0.0007233333333333356,0.21,0.04,0.96,-1.59,0.76,3.16
0.000726666666666669,0.22,0.04,0.95,-0.56,0.63,3.54
0.0007300000000000023,0.21,0.03,0.93,10.41,-1.92,4.43
0.0007333333333333357,0.21,0.08,0.95,2.79,2.08,3.01
0.0007366666666666691,0.17,0.04,0.97,4.46,-0.87,-1.24
0.0007400000000000025,0.23,0.04,0.95,5.25,5.56,-0.09
0.0007433333333333359,0.24,0.04,0.99,2.9,-0.34,-2.44
0.0007466666666666692,0.21,0.05,1.01,3.92,4.09,0.43
0.0007500000000000026,0.22,0.06,1.02,4.75,1.85,1.1
0.000753333333333336,0.24,0.07,1.01,5.08,2.67,3.11
0.0007566666666666694,0.21,0.06,1.01,4.53,1.27,3.27
0.0007600000000000028,0.21,0.06,1.02,3.88,0.55,2.69
0.0007633333333333361,0.2,0.06,1.02,3.76,0.02,2.02
0.0007666666666666695,0.18,0.05,1.03,2.98,-1.47,0.93
0.0007700000000000029,0.17,0.06,1.03,2.49,-1.16,-0.98
0.0007733333333333363,0.2,0.06,1.03,2.24,1.27,-0.53
0.0007766666666666696,0.19,0.06,1.05,0.89,1.63,-1.19
0.000780000000000003,0.19,0.06,1.04,-1.91,0.49,-1.04
0.0007833333333333364,0.18,0.05,1.04,-2.85,-0.15,-1.33
0.0007866666666666698,0.19,0.05,1.03,-2.14,-0.41,-0.56
0.0007900000000000032,0.17,0.03,1.02,-2.79,-2.84,-1.16
0.0007933333333333365,0.17,0.02,1.0,-3.07,-4.09,-2.29
0.0007966666666666699,0.18,0.01,0.97,-1.95,-1.19,-2.03
0.0008000000000000033,0.21,0.0,0.97,-1.68,1.33,-0.47
0.0008033333333333367,0.19,0.03,0.96,-0.56,-0.05,-1.11
0.00080666666666667,0.26,0.04,0.96,1.85,3.71,3.04
0.0008100000000000034,0.2,0.05,1.03,2.4,11.02,6.02
0.0008133333333333368,0.27,0.04,1.0,1.34,9.39,6.72
0.0008166666666666702,0.19,0.03,1.0,0.06,10.15,3.24
0.0008200000000000036,0.17,0.03,0.95,0.99,10.78,-1.83
0.0008233333333333369,0.25,0.02,0.88,5.42,16.27,-2.26
0.0008266666666666703,0.44,0.06,0.84,15.31,20.18,-0.37
0.0008300000000000037,0.18,0.02,0.97,8.37,9.79,-7.31
0.0008333333333333371,0.17,0.02,0.98,4.72,0.58,-9.27
0.0008366666666666705,0.24,0.03,0.93,9.37,6.72,-1.94
0.0008400000000000038,0.22,0.02,0.94,10.78,0.87,-0.53
0.0008433333333333372,0.19,0.02,0.94,11.01,-3.83,-0.55
0.0008466666666666706,0.13,0.04,0.94,12.6,-10.55,-5.57
0.000850000000000004,0.14,0.06,0.97,14.55,-8.23,-9.24
0.0008533333333333373,0.15,0.1,0.99,15.28,-3.79,-13.39
0.0008566666666666707,0.2,0.12,1.02,14.21,2.92,-15.22
0.0008600000000000041,0.21,0.13,1.06,12.26,4.81,-15.79
0.0008633333333333375,0.22,0.12,1.08,8.34,6.24,-13.6
0.0008666666666666709,0.22,0.12,1.07,5.28,4.03,-10.37
0.0008700000000000042,0.21,0.09,1.02,4.32,0.03,-7.62
0.0008733333333333376,0.2,0.08,0.98,3.68,-1.6,-6.82
0.000876666666666671,0.16,0.08,0.94,5.4,-0.78,-9.3
0.0008800000000000044,0.16,0.08,0.91,9.97,3.62,-10.75
0.0008833333333333377,0.14,0.09,0.96,9.69,2.38,-14.17
0.0008866666666666711,0.21,0.11,0.93,9.5,3.15,-15.86
0.0008900000000000045,0.19,0.12,1.0,10.24,6.9,-13.22
0.0008933333333333379,0.14,0.08,1.22,10.18,-2.23,-15.98
0.0008966666666666713,0.23,0.16,0.92,7.01,9.45,-12.63
0.0009000000000000046,0.17,0.15,1.02,10.27,-0.23,-15.02
0.000903333333333338,0.23,0.2,1.0,-1.02,-7.36,-17.1
0.0009066666666666714,0.23,0.25,1.07,-0.4,0.2,-18.69
0.0009100000000000048,0.22,0.17,0.99,1.65,7.1,-15.63
0.0009133333333333382,0.22,0.18,1.11,-1.19,2.27,-15.68
0.0009166666666666715,0.25,0.11,1.08,-10.55,-5.47,-14.35
0.0009200000000000049,0.2,0.19,1.09,-8.02,-4.55,-13.13
0.0009233333333333383,0.21,0.18,0.99,-5.82,-1.07,-11.94
0.0009266666666666717,0.21,0.16,0.99,0.98,-0.06,-8.98
0.000930000000000005,0.21,0.13,1.0,5.34,-0.69,-9.18
0.0009333333333333384,0.21,0.13,0.95,6.21,3.15,-6.26
0.0009366666666666718,0.19,0.11,0.97,7.05,-0.81,-5.34
0.0009400000000000052,0.17,0.1,0.97,7.25,-3.94,-5.25
0.0009433333333333386,0.17,0.11,0.94,8.79,-4.44,-8.53
0.0009466666666666719,0.18,0.1,0.9,10.58,0.0,-9.42
0.0009500000000000053,0.21,0.11,0.87,10.67,8.27,-7.8
0.0009533333333333387,0.23,0.14,0.97,11.91,11.1,-10.29
0.0009566666666666721,0.25,0.17,0.93,22.85,23.8,-1.76
0.0009600000000000054,0.25,0.17,0.99,25.91,28.23,5.89
0.0009633333333333388,0.21,0.19,1.09,22.9,23.88,8.38
0.0009666666666666722,0.14,0.19,1.08,14.7,17.68,7.53
0.0009700000000000056,0.12,0.19,1.08,15.63,9.25,5.88
0.000973333333333339,0.15,0.21,1.06,7.65,7.71,2.87
0.0009766666666666723,0.13,0.18,1.05,-2.61,2.64,-2.98
0.0009800000000000056,0.07,0.17,0.95,4.37,2.08,-10.82
0.0009833333333333389,0.15,0.21,0.95,6.44,4.92,-10.63
