time,acce_x,acce_y,acce_z,gyro_x,gyro_y,gyro_z
0.0,0.3,-0.08,0.97,-7.94,1.98,2.47
3.3333333333333333e-06,0.29,-0.08,0.95,-7.59,-0.9,0.87
6.666666666666667e-06,0.3,-0.08,0.96,-7.34,-4.76,0.47
9.999999999999999e-06,0.3,-0.09,0.98,-7.27,-7.95,-1.02
1.3333333333333333e-05,0.32,-0.08,0.94,-5.82,-7.15,-0.99
1.6666666666666667e-05,0.33,-0.07,0.95,-6.27,-0.14,1.02
2e-05,0.31,-0.08,0.93,-4.12,1.33,0.93
2.3333333333333336e-05,0.33,-0.07,0.93,-1.66,4.63,1.62
2.666666666666667e-05,0.32,-0.08,0.96,-1.63,4.75,1.16
3.0000000000000004e-05,0.31,-0.09,1.0,-4.12,-1.07,-0.17
3.3333333333333335e-05,0.31,-0.1,0.96,-3.39,-4.15,-1.92
3.6666666666666666e-05,0.33,-0.08,0.92,-0.34,-2.14,-1.22
3.9999999999999996e-05,0.33,-0.1,0.96,-0.99,-0.67,-1.4
4.333333333333333e-05,0.35,-0.08,0.94,0.35,5.82,1.5
4.666666666666666e-05,0.35,-0.08,0.95,-0.9,13.71,4.27
4.999999999999999e-05,0.31,-0.09,0.95,0.85,15.02,3.88
5.333333333333332e-05,0.28,-0.11,0.99,-0.82,13.15,2.0
5.666666666666665e-05,0.28,-0.11,1.0,-4.69,6.9,0.14
5.999999999999998e-05,0.29,-0.11,1.03,-8.82,-1.5,-1.66
6.333333333333332e-05,0.31,-0.09,0.94,-7.86,-2.05,-1.39
6.666666666666666e-05,0.33,-0.09,0.9,-5.33,-3.89,0.95
7e-05,0.3,-0.09,0.93,-1.15,-1.27,1.71
7.333333333333333e-05,0.27,-0.1,0.94,0.53,-1.47,-0.43
7.666666666666667e-05,0.31,-0.09,0.97,-0.7,0.84,-1.3
8e-05,0.31,-0.1,0.97,-1.94,-0.72,-2.0
8.333333333333334e-05,0.3,-0.1,0.97,-1.71,-4.26,-2.27
8.666666666666668e-05,0.3,-0.09,0.96,-1.42,-6.55,-1.92
9.000000000000002e-05,0.33,-0.09,0.94,-0.7,-2.53,0.84
9.333333333333336e-05,0.3,-0.09,0.94,1.73,0.55,0.95
9.66666666666667e-05,0.29,-0.09,0.93,7.04,-4.11,-0.85
0.00010000000000000003,0.29,-0.09,0.94,12.66,-11.83,-3.56
0.00010333333333333337,0.3,-0.09,0.94,14.02,-9.19,-4.26
0.00010666666666666671,0.28,-0.11,0.95,17.36,-15.19,-4.85
0.00011000000000000004,0.3,-0.08,0.91,23.88,-17.39,-6.18
0.00011333333333333338,0.31,-0.1,0.88,28.17,-10.75,-4.52
0.00011666666666666672,0.29,-0.08,0.94,23.53,-3.01,-2.67
0.00012000000000000006,0.23,-0.1,1.1,13.24,-3.44,-7.21
0.0001233333333333334,0.29,-0.08,1.07,7.53,-4.55,-10.92
0.00012666666666666672,0.29,-0.08,1.05,5.56,-12.37,-13.01
0.00013000000000000004,0.29,-0.07,1.02,4.14,-16.09,-14.79
0.00013333333333333337,0.34,-0.03,0.97,6.05,-5.68,-12.58
0.0001366666666666667,0.34,-0.05,0.94,12.46,-9.91,-10.64
0.00014000000000000001,0.36,-0.04,0.95,12.0,-5.44,-9.42
0.00014333333333333334,0.35,-0.04,1.01,15.24,-7.4,-8.43
0.00014666666666666666,0.35,-0.04,0.97,17.47,-12.34,-7.79
0.00015,0.34,-0.03,1.0,10.21,-0.2,-5.36
0.0001533333333333333,0.35,-0.05,1.05,2.63,1.85,-4.99
0.00015666666666666663,0.34,-0.03,1.01,-1.85,2.56,-3.94
0.00015999999999999996,0.35,-0.03,1.01,-5.21,3.3,-1.92
0.00016333333333333328,0.33,-0.05,1.04,-9.51,1.68,-4.11
0.0001666666666666666,0.33,-0.04,1.0,-11.11,3.04,-5.98
0.00016999999999999993,0.32,-0.04,0.96,-8.55,1.15,-6.95
0.00017333333333333325,0.36,-0.02,0.92,-6.99,1.6,-5.37
0.00017666666666666658,0.36,-0.03,0.96,-9.18,1.59,-3.34
0.0001799999999999999,0.33,-0.04,1.0,-10.95,-2.43,-4.05
0.00018333333333333323,0.34,-0.03,0.95,-9.42,-5.45,-4.67
0.00018666666666666655,0.35,-0.04,0.96,-8.14,-6.95,-6.5
0.00018999999999999987,0.37,-0.04,0.92,-9.86,-1.37,-6.7
0.0001933333333333332,0.37,-0.11,0.84,-2.99,-5.48,-6.44
0.00019666666666666652,0.37,-0.01,0.87,0.09,-4.67,-7.53
0.00019999999999999985,0.36,-0.07,0.83,16.06,-4.87,-7.88
0.00020333333333333317,0.39,-0.05,0.8,10.81,4.43,-6.82
0.0002066666666666665,0.4,-0.03,0.89,7.11,15.62,-3.21
0.00020999999999999982,0.39,-0.02,0.91,2.78,18.76,2.44
0.00021333333333333314,0.3,-0.02,1.01,-4.64,13.11,10.26
0.00021666666666666647,0.25,-0.04,1.03,-2.31,5.76,0.09
0.0002199999999999998,0.28,-0.02,1.05,-1.08,8.24,-5.51
0.00022333333333333311,0.37,-0.01,1.01,-5.31,7.25,-5.62
0.00022666666666666644,0.37,-0.02,0.98,-5.79,3.3,-6.58
0.00022999999999999976,0.37,-0.02,0.99,-8.02,8.21,-4.23
0.0002333333333333331,0.35,-0.04,1.02,-10.31,5.89,-4.7
0.0002366666666666664,0.36,-0.02,0.96,-6.79,6.4,-2.37
0.00023999999999999974,0.35,-0.04,0.97,-2.21,-1.19,-3.5
0.00024333333333333306,0.32,-0.04,1.02,-5.82,-1.77,-1.82
0.0002466666666666664,0.34,-0.04,1.04,-9.53,3.39,1.22
0.00024999999999999973,0.32,-0.05,1.03,-12.14,1.89,-1.25
0.00025333333333333306,0.32,-0.06,1.02,-12.93,-4.02,-4.02
0.0002566666666666664,0.32,-0.06,1.0,-14.72,-6.4,-3.28
0.0002599999999999997,0.38,-0.05,0.94,-11.71,1.31,1.91
0.00026333333333333303,0.33,-0.05,0.95,-10.32,0.99,2.6
0.00026666666666666635,0.29,-0.07,0.93,-7.77,1.07,0.41
0.0002699999999999997,0.31,-0.07,0.96,-6.64,1.73,0.03
0.000273333333333333,0.26,-0.09,0.97,-6.47,-4.27,-1.48
0.0002766666666666663,0.27,-0.09,1.0,-7.02,-10.4,-5.45
0.00027999999999999965,0.31,-0.08,1.0,-7.04,-13.5,-7.83
0.000283333333333333,0.35,-0.06,0.96,-7.88,-5.24,-4.92
0.0002866666666666663,0.41,-0.04,0.95,-8.95,5.79,2.47
0.0002899999999999996,0.34,-0.06,0.95,-7.48,7.44,2.11
0.00029333333333333295,0.3,-0.07,0.98,-5.66,-1.34,-0.87
0.00029666666666666627,0.29,-0.07,0.96,-3.51,-1.51,-1.48
0.0002999999999999996,0.29,-0.08,0.95,1.16,-5.76,-4.89
0.0003033333333333329,0.33,-0.06,0.93,4.93,-11.86,-7.4
0.00030666666666666624,0.36,-0.05,0.96,2.38,-5.01,-3.77
0.00030999999999999957,0.42,-0.06,1.0,-4.4,4.75,4.15
0.0003133333333333329,0.37,-0.06,1.03,-7.13,4.24,3.97
0.0003166666666666662,0.33,-0.08,1.0,-10.49,-2.69,3.57
0.00031999999999999954,0.32,-0.08,0.97,-9.19,-7.89,1.02
0.00032333333333333286,0.31,-0.08,0.95,-6.5,-10.43,-1.91
0.0003266666666666662,0.36,-0.07,0.9,-3.39,-5.59,-0.78
0.0003299999999999995,0.37,-0.07,0.91,-1.34,-1.88,-0.24
0.00033333333333333283,0.33,-0.09,0.94,0.58,-6.69,-2.27
0.00033666666666666616,0.35,-0.08,1.0,-5.1,-9.21,-0.2
0.0003399999999999995,0.38,-0.08,1.0,-7.31,-9.27,1.77
0.0003433333333333328,0.36,-0.08,0.98,-8.76,-7.95,2.73
0.00034666666666666613,0.34,-0.08,0.98,-8.56,-8.23,1.94
0.00034999999999999945,0.34,-0.09,0.96,-6.72,-11.57,-1.25
0.0003533333333333328,0.35,-0.08,0.95,-7.16,-9.34,1.02
0.0003566666666666661,0.39,-0.09,0.94,-8.03,-3.08,5.08
0.0003599999999999994,0.34,-0.11,0.97,-9.27,-2.38,4.08
0.00036333333333333275,0.33,-0.11,0.94,-7.27,-5.62,1.44
0.0003666666666666661,0.33,-0.1,0.93,-4.75,-10.26,0.32
0.0003699999999999994,0.33,-0.1,0.92,-0.9,-12.85,-1.86
0.0003733333333333327,0.37,-0.08,0.89,1.51,-3.22,2.02
0.00037666666666666605,0.41,-0.07,0.86,4.6,9.21,6.75
0.00037999999999999937,0.36,-0.08,0.88,3.74,14.17,10.67
0.0003833333333333327,0.29,-0.12,0.93,4.55,6.75,5.36
0.000386666666666666,0.3,-0.12,0.92,6.99,2.2,0.12
0.00038999999999999934,0.31,-0.11,0.92,9.76,-5.44,-4.47
0.00039333333333333267,0.33,-0.1,0.92,12.34,-9.18,-4.29
0.000396666666666666,0.36,-0.1,0.96,8.4,-9.4,-3.15
0.0003999999999999993,0.38,-0.11,1.0,1.91,-7.5,-2.84
0.00040333333333333264,0.37,-0.1,1.0,-0.53,-9.57,-2.95
0.00040666666666666596,0.35,-0.1,0.97,-2.08,-9.22,-3.07
0.0004099999999999993,0.34,-0.11,0.97,-2.14,-12.78,-5.85
0.0004133333333333326,0.34,-0.11,0.95,-2.79,-12.41,-8.2
0.00041666666666666593,0.38,-0.09,0.92,-2.75,-9.98,-6.14
0.00041999999999999926,0.4,-0.09,0.95,-3.1,-7.07,-3.62
0.0004233333333333326,0.36,-0.1,0.96,-3.5,-9.28,-5.86
0.0004266666666666659,0.39,-0.09,0.99,-5.3,-10.47,-6.32
0.00042999999999999923,0.42,-0.09,0.99,-7.8,-9.56,-2.75
0.00043333333333333255,0.39,-0.09,0.97,-7.63,-14.03,-3.45
0.0004366666666666659,0.38,-0.09,0.96,-6.93,-18.03,-5.08
0.0004399999999999992,0.41,-0.08,0.96,-9.86,-9.39,-1.33
0.0004433333333333325,0.38,-0.09,0.94,-9.48,-6.46,-2.72
0.00044666666666666585,0.37,-0.1,0.95,-7.91,-10.18,-4.63
0.0004499999999999992,0.38,-0.11,0.95,1.74,-15.47,-4.06
0.0004533333333333325,0.37,-0.08,1.0,-8.09,-18.09,-5.65
0.0004566666666666658,0.38,-0.1,0.98,-9.95,-19.45,-7.92
0.00045999999999999915,0.43,-0.08,0.96,-13.11,-9.76,-3.53
0.00046333333333333247,0.43,-0.08,0.93,-11.4,-8.58,-2.4
0.0004666666666666658,0.4,-0.11,0.94,-7.86,-13.79,-4.79
0.0004699999999999991,0.39,-0.11,0.96,-9.16,-16.9,-6.05
0.00047333333333333244,0.43,-0.09,0.96,-13.36,-4.95,-2.81
0.00047666666666666577,0.45,-0.09,0.94,-14.61,-0.67,-1.68
0.0004799999999999991,0.43,-0.1,0.93,-11.47,-3.76,-2.61
0.0004833333333333324,0.41,-0.11,0.95,-11.02,-9.86,-3.82
0.00048666666666666574,0.41,-0.12,0.96,-10.11,-15.95,-6.37
0.0004899999999999991,0.41,-0.13,0.95,-8.93,-18.58,-8.5
0.0004933333333333325,0.43,-0.12,0.92,-8.17,-17.19,-9.94
0.0004966666666666659,0.43,-0.16,0.91,-10.03,-15.73,-9.13
0.0004999999999999993,0.45,-0.12,0.89,-11.31,-9.85,-6.4
0.0005033333333333326,0.46,-0.13,0.9,-2.89,-4.38,-7.6
0.000506666666666666,0.47,-0.2,0.89,-1.97,-13.31,-5.45
0.0005099999999999994,0.43,-0.12,0.9,-6.63,-11.16,-3.39
0.0005133333333333328,0.44,-0.12,0.87,-6.08,-4.2,-4.11
0.0005166666666666661,0.45,-0.12,0.88,-6.34,0.92,-5.45
0.0005199999999999995,0.44,-0.13,0.9,-7.56,-1.82,-5.11
0.0005233333333333329,0.46,-0.14,0.88,-6.26,-3.5,-4.63
0.0005266666666666663,0.46,-0.13,0.91,-6.43,-10.24,-4.2
0.0005299999999999997,0.46,-0.14,0.89,-6.55,-11.53,-2.98
0.000533333333333333,0.48,-0.13,0.87,-7.88,-5.88,-0.31
0.0005366666666666664,0.48,-0.14,0.88,-9.68,-0.85,-0.27
0.0005399999999999998,0.44,-0.13,0.9,-10.73,1.36,0.75
0.0005433333333333332,0.46,-0.14,0.88,-8.67,3.25,0.03
0.0005466666666666665,0.46,-0.14,0.88,-5.69,2.05,-0.27
0.0005499999999999999,0.47,-0.14,0.87,-4.14,3.69,0.41
0.0005533333333333333,0.48,-0.14,0.87,-2.76,2.06,1.18
0.0005566666666666667,0.48,-0.16,0.88,-2.05,2.69,-0.09
0.0005600000000000001,0.47,-0.16,0.89,-2.73,-1.92,-2.21
0.0005633333333333334,0.45,-0.15,0.89,-1.36,-5.45,-2.78
0.0005666666666666668,0.43,-0.14,0.88,0.75,-4.46,-2.32
0.0005700000000000002,0.5,-0.13,0.84,5.3,1.44,-0.81
0.0005733333333333336,0.52,-0.13,0.85,7.36,0.53,0.89
0.000576666666666667,0.46,-0.13,0.88,7.95,-5.57,0.72
0.0005800000000000003,0.47,-0.14,0.91,7.1,-8.66,1.3
0.0005833333333333337,0.43,-0.16,0.93,4.03,-14.96,-1.07
0.0005866666666666671,0.46,-0.15,0.94,2.26,-17.76,-3.13
0.0005900000000000005,0.5,-0.13,0.89,1.36,-12.93,0.14
0.0005933333333333338,0.51,-0.14,0.88,-1.02,-6.9,2.12
0.0005966666666666672,0.47,-0.15,0.89,-3.68,-1.59,1.91
0.0006000000000000006,0.49,-0.14,0.85,-2.58,-0.96,1.68
0.000603333333333334,0.49,-0.14,0.86,0.37,-6.02,1.95
0.0006066666666666674,0.5,-0.16,0.85,1.33,-11.8,4.26
0.0006100000000000007,0.51,-0.14,0.88,3.44,-11.54,6.4
0.0006133333333333341,0.48,-0.15,0.92,-0.85,-13.71,6.05
0.0006166666666666675,0.42,-0.15,0.92,-1.62,-17.88,2.56
0.0006200000000000009,0.5,-0.14,0.87,-1.47,-15.6,3.48
0.0006233333333333342,0.51,-0.14,0.86,-0.82,-10.0,5.76
0.0006266666666666676,0.49,-0.15,0.87,-3.71,-4.56,7.1
0.000630000000000001,0.47,-0.16,0.88,-6.27,1.62,6.34
0.0006333333333333344,0.47,-0.16,0.88,-7.24,3.76,4.46
0.0006366666666666678,0.46,-0.16,0.89,-7.37,0.9,2.02
0.0006400000000000011,0.48,-0.15,0.9,-8.43,0.17,1.68
0.0006433333333333345,0.47,-0.15,0.9,-9.27,2.82,2.58
0.0006466666666666679,0.46,-0.14,0.9,-11.83,4.4,2.15
0.0006500000000000013,0.49,-0.15,0.91,-12.26,9.53,4.44
0.0006533333333333346,0.52,-0.14,0.87,-10.46,14.9,5.88
0.000656666666666668,0.47,-0.15,0.86,-7.13,11.15,4.47
0.0006600000000000014,0.45,-0.17,0.89,-6.08,1.65,1.8
0.0006633333333333348,0.46,-0.18,0.95,-7.3,-4.23,0.17
0.0006666666666666682,0.47,-0.15,0.92,-6.84,-3.95,-1.01
0.0006700000000000015,0.5,-0.15,0.89,-7.24,-0.21,0.75
0.0006733333333333349,0.48,-0.16,0.92,-8.67,1.73,1.97
0.0006766666666666683,0.48,-0.17,0.92,-9.76,2.61,1.5
0.0006800000000000017,0.5,-0.16,0.92,-8.89,5.39,2.93
0.000683333333333335,0.47,-0.17,0.92,-8.79,2.69,1.86
0.0006866666666666684,0.45,-0.19,0.91,-6.7,-3.05,-0.72
0.0006900000000000018,0.49,-0.17,0.91,-6.18,-5.54,-1.86
0.0006933333333333352,0.5,-0.18,0.92,-5.74,-6.82,-2.02
0.0006966666666666686,0.49,-0.16,0.9,-4.95,-5.39,-1.13
0.0007000000000000019,0.5,-0.16,0.91,-5.66,-4.08,-1.68
0.0007033333333333353,0.52,-0.14,0.92,-6.31,1.34,1.01
0.0007066666666666687,0.53,-0.15,0.89,-4.95,4.38,2.44
0.0007100000000000021,0.54,-0.17,0.88,-1.63,0.87,5.24
0.0007133333333333355,0.56,-0.16,0.85,2.08,-2.18,10.67
0.0007166666666666688,0.57,-0.16,0.81,-2.18,-7.73,16.03
0.0007200000000000022,0.49,-0.15,0.87,8.72,3.91,22.29
0.0007233333333333356,0.47,-0.18,0.88,8.85,-3.44,17.48
0.000726666666666669,0.44,-0.2,0.91,5.07,1.88,11.85
0.0007300000000000023,0.46,-0.2,0.94,1.16,-0.49,9.39
0.0007333333333333357,0.47,-0.2,0.91,-1.18,0.43,7.19
0.0007366666666666691,0.49,-0.2,0.86,-3.04,2.12,6.44
0.0007400000000000025,0.51,-0.19,0.84,-4.27,7.97,8.61
0.0007433333333333359,0.49,-0.2,0.85,-3.18,6.49,8.78
0.0007466666666666692,0.48,-0.2,0.84,-1.44,1.22,9.51
0.0007500000000000026,0.49,-0.2,0.85,1.11,-3.44,10.32
0.000753333333333336,0.45,-0.2,0.87,1.42,-7.85,9.63
0.0007566666666666694,0.43,-0.21,0.88,1.1,-10.85,6.67
0.0007600000000000028,0.42,-0.2,0.89,-0.7,-10.47,7.48
0.0007633333333333361,0.44,-0.21,0.87,-1.21,-7.62,7.33
0.0007666666666666695,0.43,-0.23,0.9,-3.36,-11.45,4.21
0.0007700000000000029,0.43,-0.23,0.89,-3.31,-15.05,2.49
0.0007733333333333363,0.46,-0.22,0.88,-3.31,-14.56,3.89
0.0007766666666666696,0.49,-0.22,0.87,-2.09,-15.4,4.82
0.000780000000000003,0.48,-0.22,0.88,-0.02,-19.86,4.66
0.0007833333333333364,0.48,-0.23,0.89,-0.11,-29.62,3.56
0.0007866666666666698,0.54,-0.21,0.82,2.38,-16.53,6.84
0.0007900000000000032,0.55,-0.2,0.82,0.96,-9.65,14.49
0.0007933333333333365,0.5,-0.21,0.85,1.39,-1.56,17.63
0.0007966666666666699,0.43,-0.21,0.9,0.64,-6.06,12.84
0.0008000000000000033,0.41,-0.23,0.95,-3.04,-9.77,4.92
0.0008033333333333367,0.44,-0.23,0.93,-7.85,-8.53,-0.32
0.00080666666666667,0.48,-0.21,0.91,-10.23,-8.34,-2.81
0.0008100000000000034,0.54,-0.19,0.87,-10.37,-2.93,-0.24
0.0008133333333333368,0.56,-0.19,0.87,-8.14,-6.66,0.64
0.0008166666666666702,0.53,-0.2,0.88,-6.58,-9.33,3.95
0.0008200000000000036,0.58,-0.19,0.85,-4.7,-5.91,8.93
0.0008233333333333369,0.55,-0.21,0.86,-4.0,-7.01,10.92
0.0008266666666666703,0.51,-0.22,0.88,-5.34,-7.92,10.0
0.0008300000000000037,0.52,-0.23,0.89,-12.12,-8.64,8.27
0.0008333333333333371,0.51,-0.24,0.88,-9.37,-4.76,8.27
0.0008366666666666705,0.5,-0.25,0.84,-8.99,-6.06,7.11
0.0008400000000000038,0.53,-0.24,0.83,-8.41,-0.72,8.52
0.0008433333333333372,0.51,-0.25,0.82,-7.45,-0.43,8.2
0.0008466666666666706,0.5,-0.26,0.82,-6.73,-0.93,7.4
0.000850000000000004,0.51,-0.26,0.8,-4.26,-0.82,7.54
0.0008533333333333373,0.53,-0.25,0.76,-0.87,3.85,9.79
0.0008566666666666707,0.52,-0.26,0.76,1.01,8.02,12.29
0.0008600000000000041,0.51,-0.27,0.78,2.6,8.44,12.75
0.0008633333333333375,0.47,-0.29,0.81,4.4,2.93,8.43
0.0008666666666666709,0.44,-0.3,0.8,7.19,-8.49,4.99
0.0008700000000000042,0.46,-0.3,0.84,10.87,-20.7,4.08
0.0008733333333333376,0.46,-0.3,0.9,9.89,-29.68,-0.95
0.000876666666666671,0.49,-0.29,0.87,9.86,-28.37,-6.47
0.0008800000000000044,0.55,-0.26,0.87,7.77,-6.32,-2.66
0.0008833333333333377,0.53,-0.21,0.87,9.8,5.51,0.85
0.0008866666666666711,0.52,-0.24,0.84,6.64,-3.22,-1.28
0.0008900000000000045,0.53,-0.23,0.84,10.66,-4.05,-2.55
0.0008933333333333379,0.54,-0.23,0.87,11.21,-4.84,-2.31
0.0008966666666666713,0.54,-0.22,0.88,10.93,-6.52,-2.93
0.0009000000000000046,0.53,-0.23,0.87,10.38,-12.34,-5.63
0.000903333333333338,0.53,-0.22,0.89,8.81,-18.02,-7.01
0.0009066666666666714,0.54,-0.21,0.89,9.3,-21.47,-9.65
0.0009100000000000048,0.53,-0.21,0.87,9.62,-29.1,-14.31
0.0009133333333333382,0.55,-0.17,0.84,7.91,-22.55,-6.95
0.0009166666666666715,0.71,-0.12,0.77,2.98,5.07,8.34
0.0009200000000000049,0.65,-0.18,0.89,-2.27,15.3,14.7
0.0009233333333333383,0.51,-0.21,0.93,-5.6,9.79,8.81
0.0009266666666666717,0.49,-0.22,0.93,-7.76,-4.37,2.79
0.000930000000000005,0.54,-0.21,0.89,-10.23,-6.82,3.91
0.0009333333333333384,0.58,-0.21,0.85,-13.42,-1.97,8.03
0.0009366666666666718,0.54,-0.22,0.84,-13.13,2.58,7.76
0.0009400000000000052,0.53,-0.22,0.83,-12.49,2.11,8.15
0.0009433333333333386,0.53,-0.23,0.82,-12.24,-1.05,8.06
0.0009466666666666719,0.52,-0.24,0.84,-12.38,-1.74,7.31
0.0009500000000000053,0.51,-0.27,0.88,-15.42,-8.38,4.72
0.0009533333333333387,0.51,-0.26,0.83,-16.47,-9.19,4.37
0.0009566666666666721,0.53,-0.27,0.79,-13.13,-12.17,3.25
0.0009600000000000054,0.54,-0.28,0.77,-9.18,-11.21,4.84
0.0009633333333333388,0.54,-0.29,0.74,-6.17,-13.42,7.57
0.0009666666666666722,0.57,-0.3,0.73,-0.96,-17.69,8.63
0.0009700000000000056,0.59,-0.31,0.75,2.5,-20.73,13.79
0.000973333333333339,0.6,-0.3,0.8,2.05,-21.54,17.24
0.0009766666666666723,0.57,-0.31,0.79,2.75,-17.13,14.27
0.0009800000000000056,0.57,-0.29,0.78,0.98,-4.18,11.89
0.0009833333333333389,0.61,-0.28,0.79,-1.56,9.11,13.68
0.0009866666666666721,0.6,-0.28,0.81,-1.69,14.03,13.83
0.0009900000000000054,0.56,-0.29,0.85,-2.03,8.24,10.21
0.0009933333333333387,0.54,-0.29,0.88,-0.73,-0.23,6.78
0.000996666666666672,0.55,-0.28,0.88,-2.79,2.63,6.84
0.0010000000000000052,0.56,-0.27,0.86,-3.48,3.16,5.16
0.0010033333333333385,0.57,-0.27,0.84,-3.33,1.56,7.28
0.0010066666666666718,0.58,-0.26,0.83,-0.98,-4.02,7.22
0.001010000000000005,0.54,-0.27,0.83,1.48,-9.36,5.92
0.0010133333333333383,0.56,-0.28,0.84,-0.02,-9.66,6.9
0.0010166666666666716,0.55,-0.27,0.82,-1.04,-1.28,6.32
0.0010200000000000048,0.56,-0.28,0.81,-2.7,5.76,7.95
0.0010233333333333381,0.55,-0.29,0.86,-5.91,8.82,7.68
0.0010266666666666714,0.54,-0.3,0.87,-8.55,7.15,6.93
0.0010300000000000047,0.51,-0.29,0.84,-9.01,-5.34,7.05
0.001033333333333338,0.51,-0.27,0.81,-2.89,-4.81,4.87
0.0010366666666666712,0.5,-0.3,0.85,-6.73,-12.56,3.68
0.0010400000000000045,0.53,-0.29,0.86,-12.02,-3.51,4.98
0.0010433333333333377,0.56,-0.29,0.84,-14.43,2.99,6.5
0.001046666666666671,0.55,-0.3,0.8,-14.58,7.92,5.76
0.0010500000000000043,0.52,-0.31,0.79,-11.92,3.56,4.09
0.0010533333333333375,0.54,-0.32,0.77,-10.32,0.15,1.74
0.0010566666666666708,0.53,-0.32,0.79,-9.15,-7.4,0.05
0.001060000000000004,0.55,-0.3,0.77,-6.53,-6.37,-1.89
0.0010633333333333374,0.57,-0.31,0.79,-6.92,-6.52,-0.73
0.0010666666666666706,0.58,-0.31,0.79,-8.67,-6.09,1.47
0.0010700000000000039,0.6,-0.33,0.8,-8.75,-2.38,3.07
0.0010733333333333372,0.59,-0.34,0.78,-9.62,-2.37,2.98
0.0010766666666666704,0.59,-0.33,0.78,-9.24,-4.46,2.15
0.0010800000000000037,0.59,-0.31,0.75,-6.99,-3.25,6.21
0.001083333333333337,0.62,-0.31,0.73,-4.08,-0.43,10.96
0.0010866666666666702,0.59,-0.32,0.76,-0.84,-1.88,12.87
0.0010900000000000035,0.58,-0.33,0.75,2.64,-3.27,14.37
0.0010933333333333368,0.58,-0.32,0.78,4.73,-3.27,16.18
0.00109666666666667,0.53,-0.34,0.8,3.44,-5.3,14.47
0.0011000000000000033,0.52,-0.33,0.82,2.27,-3.54,12.5
0.0011033333333333366,0.53,-0.31,0.82,1.02,2.15,11.48
0.0011066666666666699,0.52,-0.32,0.82,-1.47,4.64,10.35
0.0011100000000000031,0.49,-0.31,0.82,-1.15,2.63,10.23
0.0011133333333333364,0.49,-0.31,0.77,2.52,-3.02,9.74
0.0011166666666666697,0.49,-0.31,0.79,6.47,-11.97,10.17
0.001120000000000003,0.48,-0.31,0.8,9.45,-18.38,9.59
0.0011233333333333362,0.51,-0.31,0.82,8.27,-19.05,10.03
0.0011266666666666695,0.51,-0.32,0.85,4.18,-16.15,7.56
0.0011300000000000027,0.5,-0.32,0.85,-1.86,-10.82,4.0
0.001133333333333336,0.48,-0.32,0.85,-8.82,-2.85,-0.24
0.0011366666666666693,0.5,-0.33,0.84,-14.63,0.4,-3.86
0.0011400000000000026,0.56,-0.33,0.81,-15.89,15.6,-4.09
0.0011433333333333358,0.56,-0.34,0.77,-16.2,14.29,-5.11
0.001146666666666669,0.56,-0.33,0.76,-13.39,8.75,-3.68
0.0011500000000000024,0.56,-0.34,0.78,-10.7,4.35,-3.27
0.0011533333333333356,0.56,-0.34,0.77,-10.02,0.08,-1.73
0.001156666666666669,0.58,-0.34,0.78,-9.05,-2.5,-1.02
0.0011600000000000022,0.57,-0.34,0.78,-8.08,-5.74,-1.16
0.0011633333333333354,0.55,-0.35,0.78,-8.76,-10.12,-3.07
0.0011666666666666687,0.56,-0.35,0.77,-8.12,-7.83,-3.54
0.001170000000000002,0.59,-0.33,0.73,-6.85,-3.91,-1.73
0.0011733333333333353,0.59,-0.32,0.71,-2.92,0.06,1.71
0.0011766666666666685,0.59,-0.34,0.72,-0.31,1.66,6.35
0.0011800000000000018,0.57,-0.35,0.77,1.85,-4.03,6.78
0.001183333333333335,0.55,-0.37,0.79,1.56,-4.14,4.09
0.0011866666666666683,0.58,-0.38,0.78,-0.38,4.66,2.73
0.0011900000000000016,0.59,-0.38,0.78,-2.46,13.68,1.13
0.0011933333333333349,0.57,-0.39,0.77,-2.35,17.3,-1.08
0.0011966666666666681,0.6,-0.38,0.79,1.16,16.26,-1.08
0.0012000000000000014,0.62,-0.38,0.8,3.86,15.82,1.97
0.0012033333333333347,0.63,-0.38,0.81,6.4,14.56,5.04
0.001206666666666668,0.64,-0.37,0.81,9.86,8.53,7.88
0.0012100000000000012,0.64,-0.36,0.86,11.86,4.93,11.39
0.0012133333333333345,0.64,-0.36,0.9,9.27,-3.01,13.86
0.0012166666666666678,0.63,-0.33,0.88,5.54,4.92,18.63
