time,acce_x,acce_y,acce_z,gyro_x,gyro_y,gyro_z
0.0,0.12,0.19,1.01,-2.6,-3.73,3.28
3.3333333333333333e-06,0.12,0.19,1.01,-2.23,-4.31,3.24
6.666666666666667e-06,0.13,0.19,0.98,-1.79,-1.95,1.54
9.999999999999999e-06,0.13,0.19,1.0,-3.08,1.98,0.02
1.3333333333333333e-05,0.12,0.2,1.02,-4.4,2.73,-0.53
1.6666666666666667e-05,0.14,0.19,0.99,-4.47,7.57,-0.98
2e-05,0.14,0.2,1.02,-6.32,7.6,0.89
2.3333333333333336e-05,0.14,0.18,0.98,-8.61,8.75,0.53
2.666666666666667e-05,0.12,0.2,1.0,-10.99,9.25,-0.89
3.0000000000000004e-05,0.1,0.19,1.0,-12.24,8.08,-0.66
3.3333333333333335e-05,0.11,0.18,0.96,-12.24,10.29,-2.47
3.6666666666666666e-05,0.08,0.19,1.0,-14.55,8.09,-3.13
3.9999999999999996e-05,0.08,0.18,0.98,-12.73,-1.98,-1.36
4.333333333333333e-05,0.06,0.19,1.05,-17.05,-10.64,0.4
4.666666666666666e-05,0.11,0.18,1.02,-20.17,-9.44,-0.56
4.999999999999999e-05,0.09,0.21,1.01,-18.85,-12.05,-1.82
5.333333333333332e-05,0.18,0.14,0.93,-15.83,-6.63,0.49
5.666666666666665e-05,0.19,0.12,0.89,-8.26,0.14,1.57
5.999999999999998e-05,0.13,0.13,0.95,-4.78,-0.37,2.09
6.333333333333332e-05,0.11,0.15,1.02,-6.06,-1.8,2.37
6.666666666666666e-05,0.11,0.17,1.03,-7.59,-2.32,1.69
7e-05,0.11,0.17,1.06,-9.4,-2.63,1.01
7.333333333333333e-05,0.13,0.16,1.04,-10.93,-1.19,0.99
7.666666666666667e-05,0.16,0.14,1.01,-8.85,1.24,1.63
8e-05,0.12,0.14,1.01,-7.42,2.21,1.08
8.333333333333334e-05,0.14,0.13,1.01,-7.01,6.4,0.44
8.666666666666668e-05,0.1,0.21,1.06,-6.15,2.98,1.33
9.000000000000002e-05,0.1,0.15,1.02,-6.66,0.64,1.22
9.333333333333336e-05,0.08,0.16,1.07,-10.67,-3.62,0.46
9.66666666666667e-05,0.12,0.14,1.0,-10.78,-3.45,-0.02
0.00010000000000000003,0.18,0.13,0.98,-9.51,0.4,-1.01
0.00010333333333333337,0.16,0.1,0.95,-5.08,6.38,-0.09
0.00010666666666666671,0.12,0.13,1.01,-4.12,8.26,0.0
0.00011000000000000004,0.11,0.14,1.04,-6.31,12.21,-0.52
0.00011333333333333338,0.06,0.13,1.02,-6.17,1.5,0.76
0.00011666666666666672,0.1,0.12,1.01,-6.2,-0.29,1.19
0.00012000000000000006,0.12,0.13,1.02,-6.73,-0.64,2.0
0.0001233333333333334,0.09,0.12,1.0,-6.53,-2.24,1.44
0.00012666666666666672,0.1,0.13,1.02,-8.82,-2.2,-0.41
0.00013000000000000004,0.09,0.12,1.01,-7.82,-4.44,-0.32
0.00013333333333333337,0.12,0.11,0.97,-4.11,-3.37,-0.12
0.0001366666666666667,0.12,0.12,1.0,-5.6,-2.78,-0.87
0.00014000000000000001,0.12,0.11,0.99,-4.34,0.2,-1.53
0.00014333333333333334,0.13,0.1,0.96,-1.42,-0.03,-0.66
0.00014666666666666666,0.12,0.14,1.04,-4.23,-2.5,1.31
0.00015,0.12,0.12,0.99,-3.21,-2.76,1.83
0.0001533333333333333,0.13,0.11,0.99,-2.85,-0.96,1.44
0.00015666666666666663,0.13,0.14,1.04,-7.18,-0.35,1.85
0.00015999999999999996,0.15,0.11,1.0,-5.25,2.89,1.98
0.00016333333333333328,0.13,0.12,1.0,-6.08,2.55,2.7
0.0001666666666666666,0.11,0.14,1.07,-9.92,0.37,3.5
0.00016999999999999993,0.13,0.1,0.98,-7.44,3.27,2.09
0.00017333333333333325,0.13,0.09,0.98,-4.78,4.43,2.72
0.00017666666666666658,0.1,0.1,1.03,-4.34,3.77,2.85
0.0001799999999999999,0.07,0.11,1.03,-5.74,0.55,1.54
0.00018333333333333323,0.08,0.12,1.05,-6.76,-1.95,1.1
0.00018666666666666655,0.11,0.1,1.01,-5.74,-1.33,0.87
0.00018999999999999987,0.12,0.09,1.01,-5.8,-0.99,2.0
0.0001933333333333332,0.09,0.1,1.06,-7.3,-3.31,2.43
0.00019666666666666652,0.03,0.12,1.12,-9.15,-5.4,-0.29
0.00019999999999999985,-0.0,0.11,1.13,-10.58,-12.84,-2.12
0.00020333333333333317,0.02,0.08,1.05,-9.21,-18.15,-4.2
0.0002066666666666665,0.04,0.06,1.01,-6.9,-21.69,-5.22
0.00020999999999999982,0.07,0.04,0.96,-4.18,-24.69,-6.99
0.00021333333333333314,0.1,0.05,0.96,-2.05,-27.31,-7.13
0.00021666666666666647,0.11,0.08,1.04,-5.92,-27.98,-6.96
0.0002199999999999998,0.16,0.07,0.99,-4.37,-23.57,-5.79
0.00022333333333333311,0.19,0.09,1.0,-5.31,-18.14,-4.67
0.00022666666666666644,0.2,0.11,1.04,-8.26,-12.35,-3.15
0.00022999999999999976,0.2,0.09,1.03,-9.86,-9.65,-0.26
0.0002333333333333331,0.22,0.1,1.03,-10.98,-4.4,2.73
0.0002366666666666664,0.2,0.08,1.01,-12.85,-0.63,4.02
0.00023999999999999974,0.18,0.07,1.02,-13.68,-0.82,3.92
0.00024333333333333306,0.17,0.06,1.0,-12.06,2.15,2.43
0.0002466666666666664,0.16,0.07,1.02,-13.39,-1.04,2.7
0.00024999999999999973,0.17,0.06,1.0,-11.65,0.69,0.99
0.00025333333333333306,0.16,0.07,1.02,-12.0,-1.76,1.82
0.0002566666666666664,0.19,0.07,1.01,-12.14,-2.12,2.02
0.0002599999999999997,0.18,0.07,1.01,-11.11,-1.63,0.76
0.00026333333333333303,0.2,0.08,0.99,-9.62,0.03,0.56
0.00026666666666666635,0.19,0.08,1.03,-11.82,-0.37,1.22
0.0002699999999999997,0.19,0.06,0.98,-10.12,1.91,-0.05
0.000273333333333333,0.2,0.05,0.97,-9.4,2.37,1.07
0.0002766666666666663,0.17,0.06,1.01,-10.64,3.97,-0.73
0.00027999999999999965,0.17,0.05,0.98,-9.74,2.24,0.03
0.000283333333333333,0.17,0.06,0.99,-10.08,0.6,0.03
0.0002866666666666663,0.18,0.05,0.98,-11.45,-1.22,0.64
0.0002899999999999996,0.2,0.06,0.99,-12.6,0.08,1.07
0.00029333333333333295,0.2,0.03,0.94,-9.8,2.58,0.89
0.00029666666666666627,0.2,0.03,0.96,-8.79,4.95,1.4
0.0002999999999999996,0.19,0.02,0.95,-6.05,6.69,0.6
0.0003033333333333329,0.17,0.07,1.06,-12.14,0.6,3.65
0.00030666666666666624,0.16,0.06,1.05,-13.37,0.46,2.85
0.00030999999999999957,0.17,0.0,0.97,-8.43,-0.05,3.54
0.0003133333333333329,0.19,0.01,0.99,-7.68,4.0,1.51
0.0003166666666666662,0.17,0.0,1.01,-7.24,6.02,-0.08
0.00031999999999999954,0.12,0.02,1.05,-8.15,-0.09,0.44
0.00032333333333333286,0.13,0.02,1.07,-8.69,-3.83,0.75
0.0003266666666666662,0.14,0.01,1.02,-7.85,-4.21,0.4
0.0003299999999999995,0.18,-0.0,1.0,-6.15,-2.66,1.05
0.00033333333333333283,0.19,0.01,1.02,-5.92,-1.39,1.66
0.00033666666666666616,0.16,0.03,1.08,-10.43,-1.79,0.99
0.0003399999999999995,0.17,0.01,1.01,-9.89,-1.91,0.9
0.0003433333333333328,0.18,-0.0,1.0,-9.24,0.6,0.67
0.00034666666666666613,0.18,-0.0,1.0,-10.41,3.8,-0.02
0.00034999999999999945,0.19,-0.02,0.99,-8.69,5.02,1.62
0.0003533333333333328,0.21,-0.01,0.98,-6.37,5.31,4.58
0.0003566666666666661,0.18,-0.01,1.01,-7.24,4.61,5.42
0.0003599999999999994,0.18,-0.01,0.99,-5.77,5.6,5.34
0.00036333333333333275,0.16,-0.0,1.01,-5.02,7.24,4.79
0.0003666666666666661,0.16,0.0,1.03,-7.04,7.08,5.31
0.0003699999999999994,0.18,-0.0,1.02,-7.05,7.82,5.69
0.0003733333333333327,0.13,-0.03,1.02,-5.51,7.16,4.37
0.00037666666666666605,0.12,-0.0,1.05,-7.27,4.11,3.48
0.00037999999999999937,0.12,0.01,1.08,-11.04,0.92,3.73
0.0003833333333333327,0.12,-0.02,1.01,-9.56,0.49,1.21
0.000386666666666666,0.14,-0.03,1.01,-7.34,-1.88,2.2
0.00038999999999999934,0.15,-0.03,1.02,-9.48,-0.79,1.44
0.00039333333333333267,0.15,-0.02,1.01,-8.95,-0.89,1.6
0.000396666666666666,0.16,-0.04,0.97,-7.13,-1.59,1.4
0.0003999999999999993,0.15,-0.02,1.01,-7.97,-1.57,0.84
0.00040333333333333264,0.16,-0.02,1.0,-9.01,0.46,0.55
0.00040666666666666596,0.17,-0.04,0.97,-5.56,1.04,1.39
0.0004099999999999993,0.16,-0.03,1.01,-6.18,-0.2,2.81
0.0004133333333333326,0.16,-0.02,1.04,-9.79,-0.66,4.02
0.00041666666666666593,0.15,-0.02,1.03,-9.36,-3.57,5.07
0.00041999999999999926,0.16,-0.02,1.02,-11.15,-1.63,4.56
0.0004233333333333326,0.15,-0.03,1.01,-10.12,1.37,1.85
0.0004266666666666659,0.18,-0.05,1.0,-9.34,2.08,3.51
0.00042999999999999923,0.16,-0.05,0.98,-7.19,1.83,3.4
0.00043333333333333255,0.15,-0.06,0.99,-6.41,0.58,3.28
0.0004366666666666659,0.14,-0.05,0.98,-5.5,-1.25,3.4
0.0004399999999999992,0.14,-0.02,1.03,-9.86,-0.17,1.98
0.0004433333333333325,0.17,-0.05,0.99,-8.4,2.18,3.47
0.00044666666666666585,0.17,-0.05,0.99,-7.91,1.91,4.79
0.0004499999999999992,0.15,-0.04,1.05,-11.47,2.35,3.28
0.0004533333333333325,0.15,-0.06,1.0,-10.26,4.08,2.92
0.0004566666666666658,0.13,-0.08,1.02,-8.32,2.26,3.1
0.00045999999999999915,0.12,-0.05,1.06,-12.27,1.66,2.15
0.00046333333333333247,0.12,-0.06,1.03,-12.37,0.08,2.11
0.0004666666666666658,0.13,-0.08,1.0,-9.76,-2.09,1.8
0.0004699999999999991,0.14,-0.07,1.02,-9.98,-3.3,1.8
0.00047333333333333244,0.14,-0.07,1.01,-10.21,-4.02,1.04
0.00047666666666666577,0.15,-0.08,1.01,-10.15,-3.05,-0.08
0.0004799999999999991,0.11,-0.06,1.04,-13.85,-6.61,-0.66
0.0004833333333333324,0.15,-0.09,0.99,-12.31,-7.1,-0.4
0.00048666666666666574,0.18,-0.09,0.94,-9.19,-3.34,-0.2
0.0004899999999999991,0.18,-0.1,0.95,-7.77,-1.5,0.75
0.0004933333333333325,0.19,-0.09,0.93,-5.19,3.42,0.93
0.0004966666666666659,0.17,-0.07,1.0,-7.44,2.29,2.9
0.0004999999999999993,0.17,-0.07,1.0,-7.92,4.15,2.05
0.0005033333333333326,0.14,-0.09,0.98,-7.08,1.91,2.18
0.000506666666666666,0.15,-0.09,1.0,-6.7,0.58,2.4
0.0005099999999999994,0.16,-0.1,0.96,-1.94,3.11,2.03
0.0005133333333333328,0.16,-0.12,0.96,-0.66,-6.85,5.79
0.0005166666666666661,0.19,-0.08,1.03,-1.74,-0.93,4.05
0.0005199999999999995,0.19,-0.08,1.02,-5.21,3.16,3.25
0.0005233333333333329,0.17,-0.1,0.96,-0.44,2.35,5.42
0.0005266666666666663,0.18,-0.12,0.93,5.6,11.3,0.55
0.0005299999999999997,0.07,-0.06,1.05,1.44,0.67,6.29
0.000533333333333333,0.23,-0.11,0.95,5.11,13.37,5.22
0.0005366666666666664,0.19,-0.1,0.96,11.74,14.61,6.87
0.0005399999999999998,0.15,-0.04,0.94,17.79,16.26,7.16
0.0005433333333333332,0.18,-0.11,0.98,19.66,23.82,7.37
0.0005466666666666665,0.14,-0.12,0.97,18.46,20.61,5.28
0.0005499999999999999,0.1,-0.03,1.04,20.09,20.5,2.99
0.0005533333333333333,0.07,-0.05,1.08,16.02,10.81,4.06
0.0005566666666666667,0.08,-0.08,1.04,7.11,1.36,4.26
0.0005600000000000001,0.14,-0.02,1.13,-4.23,6.82,1.21
0.0005633333333333334,0.1,-0.05,1.03,-4.66,-0.46,3.62
0.0005666666666666668,0.11,-0.08,0.98,-2.23,-2.05,3.5
0.0005700000000000002,0.13,-0.06,1.02,-3.16,-6.37,6.24
0.0005733333333333336,0.15,-0.06,1.0,-5.6,-6.38,7.83
0.000576666666666667,0.13,-0.07,0.97,-4.12,-5.82,7.31
0.0005800000000000003,0.14,-0.07,0.97,-2.08,-3.74,6.55
0.0005833333333333337,0.15,-0.07,1.01,-2.64,-1.39,6.64
0.0005866666666666671,0.14,-0.05,1.03,-3.27,-1.19,7.3
0.0005900000000000005,0.15,-0.07,1.0,-1.21,-0.08,7.89
0.0005933333333333338,0.13,-0.06,1.01,-0.81,-1.51,8.23
0.0005966666666666672,0.13,-0.08,1.0,-0.63,-1.39,7.95
0.0006000000000000006,0.12,-0.08,0.99,0.43,-4.99,8.61
0.000603333333333334,0.15,-0.08,0.99,0.69,-6.73,9.21
0.0006066666666666674,0.11,-0.07,1.03,-2.15,-7.34,8.75
0.0006100000000000007,0.14,-0.08,0.99,-0.17,-5.66,8.55
0.0006133333333333341,0.15,-0.09,0.98,1.68,-1.73,7.6
0.0006166666666666675,0.12,-0.06,1.04,-2.41,-4.4,7.33
0.0006200000000000009,0.13,-0.06,1.04,-5.25,-2.69,6.21
0.0006233333333333342,0.13,-0.06,1.02,-5.1,-5.18,6.63
0.0006266666666666676,0.15,-0.07,1.02,-5.94,-5.08,7.01
0.000630000000000001,0.15,-0.07,1.04,-7.28,-1.59,7.48
0.0006333333333333344,0.14,-0.08,1.01,-6.0,0.23,6.92
0.0006366666666666678,0.13,-0.09,1.04,-6.85,1.21,5.88
0.0006400000000000011,0.11,-0.08,1.06,-7.66,0.69,5.11
0.0006433333333333345,0.12,-0.11,1.02,-8.15,0.27,4.7
0.0006466666666666679,0.13,-0.08,1.06,-11.22,0.52,5.04
0.0006500000000000013,0.11,-0.1,1.04,-10.75,-0.76,4.9
0.0006533333333333346,0.12,-0.11,1.02,-9.89,-1.28,4.38
0.000656666666666668,0.12,-0.1,1.05,-11.79,0.78,2.4
0.0006600000000000014,0.11,-0.12,0.99,-8.67,-0.29,2.95
0.0006633333333333348,0.11,-0.12,1.0,-7.89,-2.67,2.64
0.0006666666666666682,0.09,-0.11,1.02,-8.75,-4.32,2.56
0.0006700000000000015,0.11,-0.13,0.97,-4.81,-5.01,2.63
0.0006733333333333349,0.1,-0.12,1.0,-6.41,-4.15,0.5
0.0006766666666666683,0.12,-0.12,1.01,-5.95,-2.73,-0.09
0.0006800000000000017,0.13,-0.13,0.96,-3.07,-1.66,-0.03
0.000683333333333335,0.14,-0.12,0.98,-1.74,-0.37,0.06
0.0006866666666666684,0.14,-0.11,0.99,-1.44,-1.5,1.73
0.0006900000000000018,0.15,-0.1,0.99,-3.88,2.18,0.47
0.0006933333333333352,0.14,-0.09,1.03,-6.73,2.82,1.44
0.0006966666666666686,0.17,-0.11,0.96,-5.13,3.68,2.87
0.0007000000000000019,0.15,-0.12,0.99,-6.11,4.02,2.14
0.0007033333333333353,0.13,-0.11,1.0,-7.08,4.76,1.27
0.0007066666666666687,0.12,-0.1,1.04,-9.95,3.79,0.66
0.0007100000000000021,0.1,-0.11,1.02,-9.98,2.75,-0.92
0.0007133333333333355,0.1,-0.12,1.02,-10.69,-0.05,-0.53
0.0007166666666666688,0.12,-0.12,0.99,-8.96,-1.68,-0.27
0.0007200000000000022,0.14,-0.12,1.01,-8.69,-2.66,0.64
0.0007233333333333356,0.13,-0.13,1.0,-8.11,-3.27,0.37
0.000726666666666669,0.14,-0.13,0.99,-6.29,-3.47,-0.18
0.0007300000000000023,0.14,-0.12,1.0,-8.18,-1.89,-0.93
0.0007333333333333357,0.13,-0.12,1.04,-11.85,-3.53,-1.65
0.0007366666666666691,0.14,-0.12,1.03,-13.73,-2.89,-2.0
0.0007400000000000025,0.17,-0.14,0.98,-11.45,1.3,-2.79
0.0007433333333333359,0.15,-0.17,0.96,-7.45,1.3,-1.63
0.0007466666666666692,0.17,-0.18,0.96,-3.74,1.77,-0.64
0.0007500000000000026,0.18,-0.17,0.98,-2.84,3.74,0.2
0.000753333333333336,0.11,-0.18,1.01,-0.34,-0.6,0.26
0.0007566666666666694,0.18,-0.14,1.04,-5.44,3.27,-2.66
0.0007600000000000028,0.11,-0.12,1.11,-11.13,0.69,-4.4
0.0007633333333333361,0.1,-0.17,1.02,-8.23,-0.03,-5.89
0.0007666666666666695,0.14,-0.17,1.02,-5.8,-6.0,-4.46
0.0007700000000000029,0.18,-0.15,1.03,-7.36,-6.81,-2.03
0.0007733333333333363,0.18,-0.16,1.01,-6.9,-3.86,-3.04
0.0007766666666666696,0.12,-0.17,1.0,-3.85,-0.84,-4.79
0.000780000000000003,0.12,-0.12,0.97,-0.29,-1.74,-5.22
0.0007833333333333364,0.17,-0.12,1.0,1.62,-2.26,-0.93
0.0007866666666666698,0.21,-0.15,0.98,3.1,5.27,-0.95
0.0007900000000000032,0.2,-0.17,0.96,6.5,10.85,-0.11
0.0007933333333333365,0.19,-0.19,0.9,12.9,19.3,-2.46
0.0007966666666666699,0.14,-0.15,0.98,10.69,15.22,-0.66
0.0008000000000000033,0.1,-0.11,1.05,4.34,7.36,1.05
0.0008033333333333367,0.09,-0.12,1.02,1.63,2.24,0.27
0.00080666666666667,0.11,-0.12,1.01,0.89,-1.13,0.95
0.0008100000000000034,0.13,-0.13,0.99,-0.27,-2.84,1.68
0.0008133333333333368,0.15,-0.13,0.98,-1.21,0.85,1.3
0.0008166666666666702,0.15,-0.14,0.96,-0.69,2.23,1.98
0.0008200000000000036,0.13,-0.11,1.03,-5.01,-0.03,3.74
0.0008233333333333369,0.12,-0.13,1.0,-6.43,-1.42,4.53
0.0008266666666666703,0.14,-0.14,0.97,-5.24,0.35,4.14
0.0008300000000000037,0.12,-0.14,0.99,-5.82,-0.27,3.73
0.0008333333333333371,0.12,-0.15,0.98,-4.92,0.84,2.38
0.0008366666666666705,0.13,-0.14,1.01,-6.46,0.72,3.33
0.0008400000000000038,0.11,-0.12,1.05,-8.89,-2.17,4.24
0.0008433333333333372,0.1,-0.15,1.01,-8.15,-3.4,3.68
0.0008466666666666706,0.14,-0.15,1.02,-9.19,-0.5,2.43
0.000850000000000004,0.1,-0.15,1.04,-11.63,-1.05,1.36
0.0008533333333333373,0.1,-0.17,0.99,-9.31,-3.83,1.21
0.0008566666666666707,0.12,-0.18,0.99,-8.95,-3.11,0.53
0.0008600000000000041,0.14,-0.17,1.01,-9.73,-2.93,1.16
0.0008633333333333375,0.12,-0.18,0.99,-10.38,-4.24,1.01
0.0008666666666666709,0.11,-0.18,0.99,-8.41,-3.44,-0.38
0.0008700000000000042,0.12,-0.17,1.0,-9.56,-4.15,-1.01
0.0008733333333333376,0.13,-0.17,0.98,-8.92,-4.52,-0.27
0.000876666666666671,0.13,-0.17,0.97,-8.52,-4.73,-0.6
0.0008800000000000044,0.15,-0.19,0.98,-8.06,-1.94,-1.28
0.0008833333333333377,0.16,-0.18,0.97,-6.27,1.69,-1.54
0.0008866666666666711,0.15,-0.17,1.0,-5.83,-0.41,0.6
0.0008900000000000045,0.11,-0.17,1.0,-5.79,-4.9,2.12
0.0008933333333333379,0.13,-0.19,0.97,-4.66,-5.42,1.44
0.0008966666666666713,0.15,-0.19,0.96,-2.89,-6.18,2.41
0.0009000000000000046,0.15,-0.19,0.98,-1.59,-8.4,4.66
0.000903333333333338,0.16,-0.2,0.92,5.44,-1.92,3.65
0.0009066666666666714,0.19,-0.19,0.96,7.28,-1.04,3.68
0.0009100000000000048,0.06,-0.18,1.01,7.8,-11.6,4.99
0.0009133333333333382,0.19,-0.12,1.02,6.53,2.5,-4.02
0.0009166666666666715,0.17,-0.0,1.04,9.6,7.86,0.02
0.0009200000000000049,0.19,-0.12,0.99,2.15,5.39,-3.98
0.0009233333333333383,0.14,-0.17,1.01,-0.84,2.92,-0.23
0.0009266666666666717,0.1,-0.17,1.02,-5.51,-6.44,-0.81
0.000930000000000005,0.14,-0.17,1.01,-6.24,-5.08,-3.73
0.0009333333333333384,0.14,-0.15,1.01,-9.22,-4.84,-2.55
0.0009366666666666718,0.16,-0.18,0.98,-8.96,-0.85,-2.52
0.0009400000000000052,0.11,-0.17,0.99,-10.46,-6.43,-2.26
0.0009433333333333386,0.16,-0.17,0.98,-11.68,-7.15,-1.63
0.0009466666666666719,0.18,-0.2,0.94,-10.34,-4.78,-1.01
0.0009500000000000053,0.18,-0.18,0.99,-11.08,-1.88,-1.4
0.0009533333333333387,0.18,-0.2,0.95,-10.89,-2.4,-0.26
0.0009566666666666721,0.15,-0.18,1.01,-15.15,-7.34,0.72
0.0009600000000000054,0.18,-0.19,0.99,-14.32,-0.85,-1.18
0.0009633333333333388,0.17,-0.2,0.97,-12.17,-2.15,-0.47
0.0009666666666666722,0.17,-0.21,0.96,-9.3,0.73,-0.69
0.0009700000000000056,0.18,-0.23,0.92,-4.87,3.28,-1.53
0.000973333333333339,0.19,-0.23,0.94,-0.38,1.95,0.93
0.0009766666666666723,0.16,-0.22,0.97,0.87,-0.64,1.08
0.0009800000000000056,0.13,-0.19,1.01,-0.7,-5.56,1.48
0.0009833333333333389,0.17,-0.19,1.0,-3.48,-1.74,-0.23
0.0009866666666666721,0.14,-0.18,1.02,-5.91,-8.73,2.67
0.0009900000000000054,0.18,-0.21,0.95,-1.82,-3.34,1.62
0.0009933333333333387,0.27,-0.21,0.86,3.85,1.53,1.22
0.000996666666666672,0.22,-0.22,0.95,3.48,11.86,-0.84
0.0010000000000000052,0.26,-0.22,0.94,6.58,24.24,-0.11
0.0010033333333333385,0.16,-0.22,0.98,3.94,23.65,-0.47
0.0010066666666666718,0.11,-0.19,1.08,-1.69,18.49,0.0
0.001010000000000005,0.1,-0.2,1.06,-4.41,11.66,1.21
0.0010133333333333383,0.1,-0.22,1.0,-1.59,13.53,0.23
0.0010166666666666716,0.15,-0.23,1.0,-0.69,11.42,2.87
0.0010200000000000048,0.13,-0.22,1.01,-0.55,13.19,2.0
0.0010233333333333381,0.11,-0.21,1.04,-1.27,11.34,1.37
0.0010266666666666714,0.06,-0.18,1.09,-9.08,2.6,1.51
0.0010300000000000047,0.07,-0.18,1.09,-12.27,-0.67,0.49
0.001033333333333338,0.1,-0.21,1.01,-9.28,-0.03,-1.28
0.0010366666666666712,0.13,-0.24,0.99,-6.27,2.23,-2.11
0.0010400000000000045,0.11,-0.23,1.0,-2.96,1.27,-1.39
0.0010433333333333377,0.11,-0.23,0.98,-1.3,1.77,-2.78
0.001046666666666671,0.1,-0.19,1.05,-8.85,1.01,-3.73
0.0010500000000000043,0.1,-0.21,1.0,-8.43,-5.15,-2.41
0.0010533333333333375,0.11,-0.22,0.96,-8.61,-7.04,-3.73
0.0010566666666666708,0.16,-0.24,0.95,-8.0,-2.99,-6.53
0.001060000000000004,0.21,-0.26,0.93,-11.45,4.27,-7.42
0.0010633333333333374,0.14,-0.26,0.92,-9.54,-3.15,-5.79
0.0010666666666666706,0.14,-0.23,0.95,-11.44,-4.09,-6.84
0.0010700000000000039,0.16,-0.2,0.95,-7.92,-1.15,-4.81
0.0010733333333333372,0.22,-0.21,0.93,-2.52,10.08,-4.85
0.0010766666666666704,0.15,-0.18,1.02,-3.6,7.28,-1.31
0.0010800000000000037,0.14,-0.19,1.02,-6.63,2.61,0.69
0.001083333333333337,0.14,-0.21,1.0,-7.27,2.06,1.05
0.0010866666666666702,0.12,-0.24,0.98,-4.98,-0.09,2.15
0.0010900000000000035,0.14,-0.24,0.98,-4.34,1.73,1.82
0.0010933333333333368,0.13,-0.24,1.02,-4.29,1.3,2.5
0.00109666666666667,0.09,-0.24,1.0,-2.41,-1.44,1.63
0.0011000000000000033,0.1,-0.23,1.03,-2.06,-4.6,2.18
0.0011033333333333366,0.12,-0.24,1.01,-1.59,-4.02,1.95
0.0011066666666666699,0.15,-0.23,0.99,-2.7,0.4,1.13
0.0011100000000000031,0.08,-0.24,1.0,0.58,-3.45,1.3
0.0011133333333333364,0.09,-0.24,1.0,-0.37,-0.37,-1.85
0.0011166666666666697,0.11,-0.26,0.97,1.33,3.05,-3.68
0.001120000000000003,0.11,-0.24,0.99,-1.24,2.79,-4.95
0.0011233333333333362,0.08,-0.23,1.0,-1.91,-4.56,-4.15
0.0011266666666666695,0.09,-0.23,0.97,-2.61,-9.59,-3.62
0.0011300000000000027,0.09,-0.25,0.93,-0.73,-10.72,-5.11
0.001133333333333336,0.16,-0.25,0.91,1.83,-6.31,-4.75
0.0011366666666666693,0.22,-0.24,0.86,4.4,-0.76,-5.39
0.0011400000000000026,0.18,-0.26,0.9,5.69,2.79,-4.72
0.0011433333333333358,0.15,-0.21,0.97,1.86,-0.92,-1.59
0.001146666666666669,0.17,-0.2,0.97,0.93,0.55,-0.05
0.0011500000000000024,0.16,-0.21,0.98,-1.04,0.06,2.15
0.0011533333333333356,0.14,-0.2,1.01,-3.47,1.37,2.43
0.001156666666666669,0.16,-0.21,0.99,-4.41,4.05,2.05
0.0011600000000000022,0.16,-0.22,1.0,-4.11,9.68,0.89
0.0011633333333333354,0.14,-0.21,1.02,-4.78,8.55,2.06
0.0011666666666666687,0.12,-0.23,1.01,-4.29,5.39,2.81
0.001170000000000002,0.1,-0.23,1.03,-3.59,-1.98,3.6
0.0011733333333333353,0.1,-0.23,1.04,-5.11,-1.69,1.94
0.0011766666666666685,0.08,-0.22,1.06,-8.2,-6.11,1.37
0.0011800000000000018,0.11,-0.23,1.03,-10.05,-7.97,1.83
0.001183333333333335,0.12,-0.24,1.01,-10.89,-8.37,1.86
0.0011866666666666683,0.15,-0.27,0.98,-9.42,-5.5,1.63
0.0011900000000000016,0.13,-0.26,0.97,-6.06,-6.37,1.83
0.0011933333333333349,0.11,-0.25,1.03,-9.01,-6.31,0.46
0.0011966666666666681,0.13,-0.26,1.01,-10.08,-7.85,0.11
0.0012000000000000014,0.1,-0.27,0.97,-8.52,-11.59,-0.18
0.0012033333333333347,0.13,-0.28,0.96,-7.66,-13.08,-0.14
0.001206666666666668,0.15,-0.27,0.97,-7.56,-11.63,-1.37
0.0012100000000000012,0.14,-0.27,0.95,-5.44,-11.13,-2.18
0.0012133333333333345,0.18,-0.28,0.94,-3.6,-5.3,-2.82
0.0012166666666666678,0.18,-0.27,0.95,-3.33,-6.0,-1.18
0.001220000000000001,0.12,-0.23,1.03,-9.02,-9.36,-1.63
0.0012233333333333343,0.19,-0.25,0.98,-8.32,-6.17,-0.98
0.0012266666666666676,0.2,-0.27,0.93,-6.05,-2.26,-0.5
0.0012300000000000008,0.19,-0.26,0.95,-6.32,0.46,-0.02
0.0012333333333333341,0.21,-0.27,0.94,-3.86,7.37,-0.82
0.0012366666666666674,0.2,-0.27,0.96,-1.04,10.43,0.95
