time,accl_x,accl_y,accl_z,gyro_x,gyro_y,gyro_z
0.0,0.17,0.11,1.01,-10.08,1.73,12.55
3.3333333333333333e-06,0.15,0.07,1.03,-8.15,-3.11,12.52
6.666666666666667e-06,0.13,0.09,1.04,-10.79,-0.73,15.3
9.999999999999999e-06,0.13,0.13,1.04,-13.97,-1.04,12.06
1.3333333333333333e-05,0.1,0.06,1.01,-4.96,-8.09,16.98
1.6666666666666667e-05,0.17,0.08,0.97,-6.69,-9.11,11.42
2e-05,0.23,0.08,0.97,4.34,-2.43,13.1
2.3333333333333336e-05,0.24,0.02,0.98,5.98,12.61,13.01
2.666666666666667e-05,0.24,-0.09,1.02,13.57,14.38,11.3
3.0000000000000004e-05,0.11,0.15,1.21,12.5,16.81,5.39
3.3333333333333335e-05,0.13,0.08,1.18,11.92,6.15,6.12
3.6666666666666666e-05,0.19,0.15,1.15,5.36,-5.27,8.27
3.9999999999999996e-05,0.24,0.22,1.11,-0.44,1.92,11.77
4.333333333333333e-05,0.23,0.12,1.07,-8.92,4.32,11.54
4.666666666666666e-05,0.14,0.1,1.03,-8.31,4.17,11.69
4.999999999999999e-05,0.02,0.23,1.1,-7.51,0.09,14.52
5.333333333333332e-05,0.03,0.05,1.05,-4.5,-6.56,13.97
5.666666666666665e-05,0.03,0.05,1.02,16.18,-1.42,4.98
5.999999999999998e-05,-0.03,0.09,1.02,20.92,-18.84,11.68
6.333333333333332e-05,0.05,-0.11,0.89,36.44,-46.2,13.79
6.666666666666666e-05,0.1,-0.02,0.91,40.55,-37.47,11.33
7e-05,0.12,0.05,1.05,38.61,-43.3,14.75
7.333333333333333e-05,0.2,0.08,1.07,28.61,-30.21,15.85
7.666666666666667e-05,0.18,0.02,0.98,33.65,-14.69,12.09
8e-05,0.14,0.03,0.97,30.6,-19.94,8.66
8.333333333333334e-05,0.2,0.03,0.92,36.32,-31.42,13.4
8.666666666666668e-05,0.33,0.06,0.97,39.56,-0.08,9.86
9.000000000000002e-05,0.25,0.21,1.2,6.76,1.47,13.05
9.333333333333336e-05,0.22,0.18,1.1,-7.59,9.94,11.21
9.66666666666667e-05,0.21,0.13,0.94,-6.9,15.34,7.28
0.00010000000000000003,0.17,0.09,0.79,8.06,15.47,4.38
0.00010333333333333337,0.13,0.1,0.81,24.44,3.08,8.29
0.00010666666666666671,0.13,0.05,0.82,44.06,-3.3,12.35
0.00011000000000000004,0.13,0.17,0.81,55.82,-15.3,11.95
0.00011333333333333338,0.17,0.03,0.74,89.5,-28.58,17.42
0.00011666666666666672,0.14,0.29,0.82,106.38,-39.86,21.85
0.00012000000000000006,0.18,0.28,0.89,112.46,-54.43,25.16
0.0001233333333333334,0.21,0.42,1.11,69.47,-46.81,14.18
0.00012666666666666672,0.22,0.55,1.53,-2.95,-44.99,9.85
0.00013000000000000004,0.48,0.45,1.25,-40.78,-15.33,11.59
0.00013333333333333337,0.37,0.24,0.8,-30.27,-14.27,16.43
0.0001366666666666667,0.28,0.13,0.68,-3.04,-6.18,14.63
0.00014000000000000001,0.31,0.21,0.91,1.71,7.85,15.3
0.00014333333333333334,0.27,0.22,0.95,0.24,4.49,18.29
0.00014666666666666666,0.17,0.19,0.9,4.37,-10.67,18.58
0.00015,0.14,0.23,1.01,-0.21,-29.07,15.02
0.0001533333333333333,0.23,0.22,0.97,-3.77,-29.83,14.35
0.00015666666666666663,0.27,0.18,0.91,-3.47,-22.03,14.2
0.00015999999999999996,0.31,0.17,0.85,0.58,-6.67,12.37
0.00016333333333333328,0.29,0.15,0.87,7.6,-2.89,11.31
0.0001666666666666666,0.3,0.17,0.86,12.44,3.33,8.98
0.00016999999999999993,0.22,0.24,1.02,7.19,-7.21,10.47
0.00017333333333333325,0.27,0.26,1.09,-5.42,-8.52,12.12
0.00017666666666666658,0.29,0.24,1.02,-10.24,-10.53,11.33
0.0001799999999999999,0.32,0.18,0.93,-6.17,-6.31,6.63
0.00018333333333333323,0.38,0.17,0.9,-1.88,4.85,3.19
0.00018666666666666655,0.38,0.22,1.02,-7.76,15.36,0.78
0.00018999999999999987,0.35,0.26,1.09,-14.56,16.47,2.95
0.0001933333333333332,0.31,0.22,1.02,-11.08,12.0,5.19
0.00019666666666666652,0.29,0.23,1.0,-8.96,5.94,6.15
0.00019999999999999985,0.3,0.25,1.09,-14.98,5.18,6.82
0.00020333333333333317,0.3,0.22,1.02,-14.72,5.37,6.35
0.0002066666666666665,0.29,0.19,0.95,-9.31,5.07,4.63
0.00020999999999999982,0.35,0.21,0.95,-5.97,10.27,5.16
0.00021333333333333314,0.35,0.2,0.97,-3.74,12.66,7.39
0.00021666666666666647,0.32,0.19,0.99,-0.58,5.77,11.88
0.0002199999999999998,0.29,0.2,1.0,-1.8,2.31,11.82
0.00022333333333333311,0.29,0.26,1.1,-13.77,4.92,10.2
0.00022666666666666644,0.31,0.22,0.99,-12.92,8.43,9.5
0.00022999999999999976,0.3,0.18,0.95,-10.58,14.82,6.84
0.0002333333333333331,0.26,0.19,1.01,-12.08,15.65,5.04
0.0002366666666666664,0.27,0.19,1.01,-13.62,11.3,7.24
0.00023999999999999974,0.27,0.16,0.97,-12.31,8.78,8.4
0.00024333333333333306,0.26,0.16,0.93,-7.86,11.31,6.75
0.0002466666666666664,0.26,0.17,0.97,-5.13,7.57,7.51
0.00024999999999999973,0.27,0.17,1.0,-4.38,2.93,10.12
0.00025333333333333306,0.26,0.16,0.97,-1.88,-0.61,10.32
0.0002566666666666664,0.26,0.17,0.98,-0.06,-8.79,12.44
0.0002599999999999997,0.26,0.18,1.01,-4.05,-12.32,13.1
0.00026333333333333303,0.28,0.18,1.0,-7.63,-3.62,9.11
0.00026666666666666635,0.28,0.17,0.95,-7.54,-1.15,8.37
0.0002699999999999997,0.29,0.15,0.94,-6.18,2.03,6.37
0.000273333333333333,0.29,0.17,0.96,-6.38,2.89,6.76
0.0002766666666666663,0.27,0.16,0.97,-5.04,0.96,8.79
0.00027999999999999965,0.25,0.16,0.97,-4.05,-0.72,10.32
0.000283333333333333,0.21,0.16,0.99,-3.66,-4.64,8.92
0.0002866666666666663,0.23,0.15,0.96,-5.15,-1.16,3.8
0.0002899999999999996,0.31,0.16,0.94,-7.05,16.53,-4.31
0.00029333333333333295,0.32,0.15,0.92,-5.33,20.43,-3.77
0.00029666666666666627,0.27,0.15,0.94,-1.66,21.1,-2.84
0.0002999999999999996,0.22,0.16,1.01,-3.53,8.84,2.0
0.0003033333333333329,0.2,0.16,0.98,-1.02,-0.02,3.63
0.00030666666666666624,0.19,0.16,0.98,-0.53,-7.71,3.88
0.00030999999999999957,0.26,0.2,1.04,-9.48,1.82,-0.64
0.0003133333333333329,0.31,0.21,1.03,-18.43,12.46,-2.92
0.0003166666666666662,0.24,0.2,0.99,-16.95,13.44,-2.95
0.00031999999999999954,0.22,0.16,0.95,-11.02,5.24,1.34
0.00032333333333333286,0.22,0.14,0.98,-6.67,-0.76,4.49
0.0003266666666666662,0.2,0.16,1.01,-8.78,-6.24,4.58
0.0003299999999999995,0.22,0.16,0.99,-10.55,-0.99,-1.85
0.00033333333333333283,0.28,0.16,0.94,-9.79,6.2,-2.64
0.00033666666666666616,0.27,0.15,0.96,-9.85,10.4,-2.85
0.0003399999999999995,0.23,0.14,0.96,-8.6,10.05,-1.02
0.0003433333333333328,0.21,0.12,0.96,-6.17,-0.12,1.62
0.00034666666666666613,0.2,0.09,0.93,-2.5,-9.71,4.32
0.00034999999999999945,0.22,0.07,0.92,0.89,-15.88,7.63
0.0003533333333333328,0.23,0.08,0.94,-0.03,-14.02,4.78
0.0003566666666666661,0.25,0.1,0.99,-6.27,-0.95,-2.79
0.0003599999999999994,0.24,0.11,0.97,-4.34,-8.23,-3.22
0.00036333333333333275,0.28,0.12,0.95,-2.52,-13.08,-0.89
0.0003666666666666661,0.3,0.12,0.95,-1.25,-13.15,1.91
0.0003699999999999994,0.31,0.12,0.95,0.56,-8.24,2.98
0.0003733333333333327,0.32,0.11,0.96,-0.7,-0.12,0.99
0.00037666666666666605,0.3,0.13,0.98,-2.34,1.6,-0.55
0.00037999999999999937,0.29,0.13,0.96,-2.55,4.7,-2.76
0.0003833333333333327,0.27,0.15,1.01,-5.34,3.51,-3.3
0.000386666666666666,0.25,0.16,1.04,-7.56,-3.85,-0.81
0.00038999999999999934,0.27,0.15,1.03,-13.07,-9.54,-0.26
0.00039333333333333267,0.26,0.15,1.04,-20.0,-17.33,1.8
0.000396666666666666,0.3,0.13,1.01,-22.56,-8.24,-1.68
0.0003999999999999993,0.34,0.12,0.94,-19.05,-3.18,0.7
0.00040333333333333264,0.32,0.07,0.89,-11.92,3.11,-0.75
0.00040666666666666596,0.3,0.08,0.95,-8.98,3.63,0.26
0.0004099999999999993,0.3,0.08,0.94,-5.07,3.79,2.2
0.0004133333333333326,0.29,0.08,0.94,-3.21,7.45,2.84
0.00041666666666666593,0.3,0.09,0.96,-3.57,11.59,-0.46
0.00041999999999999926,0.31,0.09,0.98,-5.19,11.4,1.25
0.0004233333333333326,0.28,0.09,0.98,-5.59,9.57,3.05
0.0004266666666666659,0.26,0.09,0.99,-6.31,6.41,2.63
0.00042999999999999923,0.25,0.09,1.0,-6.18,2.08,2.09
0.00043333333333333255,0.26,0.08,0.98,-5.39,-0.09,1.16
0.0004366666666666659,0.25,0.08,0.99,-5.34,-2.23,-0.78
0.0004399999999999992,0.3,0.09,0.97,-3.07,-3.11,0.2
0.0004433333333333325,0.31,0.09,0.98,-1.07,-4.67,2.5
0.00044666666666666585,0.31,0.1,0.98,-0.27,-4.73,4.66
0.0004499999999999992,0.28,0.1,1.0,0.69,-9.82,4.38
0.0004533333333333325,0.25,0.1,1.04,0.61,-15.19,4.85
0.0004566666666666658,0.28,0.11,1.04,-1.01,-12.35,5.19
0.00045999999999999915,0.29,0.11,1.0,-2.32,-5.39,2.12
0.00046333333333333247,0.32,0.13,1.03,-4.81,0.66,2.23
0.0004666666666666658,0.33,0.12,1.02,-6.35,6.79,3.04
0.0004699999999999991,0.29,0.1,1.01,-7.53,11.48,1.31
0.00047333333333333244,0.28,0.09,0.96,-4.7,16.21,-0.06
0.00047666666666666577,0.29,0.09,0.98,-3.36,18.98,1.19
0.0004799999999999991,0.22,0.09,1.01,-3.85,11.94,2.31
0.0004833333333333324,0.23,0.07,0.98,-3.53,8.26,2.73
0.00048666666666666574,0.25,0.06,0.96,-1.04,7.98,2.34
0.0004899999999999991,0.27,0.06,0.95,0.55,7.39,3.24
0.0004933333333333325,0.27,0.06,0.93,2.12,9.62,2.09
0.0004966666666666659,0.27,0.07,0.93,3.37,13.11,0.96
0.0004999999999999993,0.28,0.09,0.94,3.02,14.69,2.26
0.0005033333333333326,0.25,0.09,0.97,1.85,13.07,3.16
0.000506666666666666,0.23,0.08,0.93,2.49,12.69,1.95
0.0005099999999999994,0.25,0.06,0.89,5.19,15.24,0.76
0.0005133333333333328,0.26,0.07,0.88,6.5,22.55,-3.79
0.0005166666666666661,0.25,0.09,0.89,6.9,25.63,-5.37
0.0005199999999999995,0.23,0.08,0.91,10.0,21.07,-3.01
0.0005233333333333329,0.23,0.1,0.97,9.77,14.9,-0.64
0.0005266666666666663,0.25,0.12,0.99,7.77,13.45,2.96
0.0005299999999999997,0.23,0.11,0.99,9.08,9.8,6.98
0.000533333333333333,0.2,0.1,0.98,9.91,8.49,6.64
0.0005366666666666664,0.15,0.12,1.02,9.68,4.41,4.47
0.0005399999999999998,0.15,0.1,1.02,8.79,0.7,3.31
0.0005433333333333332,0.19,0.11,1.0,7.33,-0.67,4.05
0.0005466666666666665,0.21,0.13,1.01,5.3,4.47,2.75
0.0005499999999999999,0.18,0.12,1.03,4.66,6.55,2.08
0.0005533333333333333,0.19,0.14,1.03,2.02,7.97,1.71
0.0005566666666666667,0.18,0.14,1.07,-3.53,7.88,2.5
0.0005600000000000001,0.19,0.1,1.02,-2.95,9.63,1.92
0.0005633333333333334,0.17,0.08,0.99,-0.14,9.25,1.18
0.0005666666666666668,0.17,0.09,1.02,-2.06,5.98,2.08
0.0005700000000000002,0.14,0.12,1.05,-6.89,5.74,0.03
0.0005733333333333336,0.18,0.1,1.02,-7.22,9.83,-2.46
0.000576666666666667,0.19,0.09,1.01,-7.44,11.91,-2.55
0.0005800000000000003,0.19,0.08,1.01,-8.18,11.47,-1.76
0.0005833333333333337,0.19,0.07,0.98,-6.76,11.79,-2.52
0.0005866666666666671,0.17,0.07,0.99,-4.56,10.38,-2.26
0.0005900000000000005,0.17,0.09,1.02,-5.6,6.78,-0.44
0.0005933333333333338,0.18,0.09,1.01,-4.41,2.69,2.02
0.0005966666666666672,0.18,0.07,0.98,-1.94,3.68,1.4
0.0006000000000000006,0.17,0.07,1.0,-2.14,2.66,0.7
0.000603333333333334,0.18,0.09,1.0,-0.82,0.43,1.42
0.0006066666666666674,0.18,0.08,1.01,-0.96,-2.03,2.47
0.0006100000000000007,0.2,0.08,1.02,-2.87,1.07,1.62
0.0006133333333333341,0.21,0.08,1.0,-2.02,2.47,1.34
0.0006166666666666675,0.19,0.07,1.0,0.06,4.34,0.55
0.0006200000000000009,0.17,0.08,1.02,-0.87,1.89,1.04
0.0006233333333333342,0.2,0.09,1.02,-1.19,2.46,2.12
0.0006266666666666676,0.17,0.1,1.03,-0.98,1.27,2.21
0.000630000000000001,0.17,0.08,1.02,1.39,-1.18,3.07
0.0006333333333333344,0.19,0.09,1.01,0.73,0.78,3.25
0.0006366666666666678,0.18,0.1,1.02,-0.96,0.18,3.16
0.0006400000000000011,0.17,0.08,0.97,1.95,-1.65,3.24
0.0006433333333333345,0.18,0.07,0.91,7.18,-6.05,5.59
0.0006466666666666679,0.2,0.08,0.89,10.4,-7.45,6.43
0.0006500000000000013,0.22,0.08,0.88,14.79,-5.65,5.98
0.0006533333333333346,0.22,0.08,0.9,17.5,-8.18,8.46
0.000656666666666668,0.26,0.11,0.9,20.53,-7.19,12.12
0.0006600000000000014,0.2,0.12,0.95,21.27,-11.76,16.95
0.0006633333333333348,0.17,0.11,0.95,24.05,-13.47,18.26
0.0006666666666666682,0.16,0.12,0.97,24.14,-12.63,14.24
0.0006700000000000015,0.14,0.16,1.02,18.32,-7.53,7.39
0.0006733333333333349,0.2,0.17,1.0,16.12,-1.53,4.24
0.0006766666666666683,0.18,0.16,0.99,14.26,2.24,1.74
0.0006800000000000017,0.2,0.16,1.01,13.59,4.38,2.06
0.000683333333333335,0.18,0.16,1.02,13.73,-4.09,5.68
0.0006866666666666684,0.18,0.14,0.98,16.67,-5.76,6.41
0.0006900000000000018,0.18,0.15,1.01,17.13,-9.47,8.09
0.0006933333333333352,0.18,0.16,1.01,17.62,-15.19,10.85
0.0006966666666666686,0.18,0.15,1.02,18.26,-19.89,11.39
0.0007000000000000019,0.2,0.16,1.02,16.58,-17.27,8.21
0.0007033333333333353,0.22,0.18,1.02,13.76,-16.0,7.36
0.0007066666666666687,0.22,0.19,1.04,10.84,-11.76,4.73
0.0007100000000000021,0.24,0.18,1.01,7.25,-6.41,2.55
0.0007133333333333355,0.24,0.19,1.0,5.3,-7.83,4.66
0.0007166666666666688,0.24,0.17,0.98,4.03,-5.42,3.59
0.0007200000000000022,0.25,0.18,0.98,0.95,-1.54,1.34
0.0007233333333333356,0.28,0.18,0.98,-2.0,3.15,0.26
0.000726666666666669,0.26,0.16,0.96,-1.65,5.97,-1.22
0.0007300000000000023,0.23,0.16,0.97,-1.83,7.44,-3.77
0.0007333333333333357,0.25,0.16,0.99,-4.61,10.55,-3.22
0.0007366666666666691,0.23,0.15,0.96,-2.27,8.23,-0.41
0.0007400000000000025,0.23,0.15,0.97,-1.63,2.34,-0.43
0.0007433333333333359,0.23,0.13,0.96,-0.37,2.72,0.81
0.0007466666666666692,0.2,0.14,0.96,-1.18,2.53,-0.09
0.0007500000000000026,0.23,0.16,0.99,-4.0,8.81,-1.21
0.000753333333333336,0.22,0.16,0.97,-5.68,10.66,-1.83
0.0007566666666666694,0.21,0.14,0.95,-6.72,14.66,-4.46
0.0007600000000000028,0.2,0.13,0.91,-3.53,13.27,-2.2
0.0007633333333333361,0.19,0.13,0.94,-1.37,13.73,-2.26
0.0007666666666666695,0.14,0.14,0.96,-0.2,6.5,-1.95
0.0007700000000000029,0.15,0.15,0.98,-0.82,4.67,-0.99
0.0007733333333333363,0.16,0.13,0.98,0.78,0.76,-0.99
0.0007766666666666696,0.19,0.15,1.01,1.66,-3.95,1.68
0.000780000000000003,0.18,0.15,1.01,0.08,0.9,-2.4
0.0007833333333333364,0.17,0.16,1.03,-3.13,2.67,-5.28
0.0007866666666666698,0.2,0.2,1.0,-3.44,0.7,-5.37
0.0007900000000000032,0.19,0.16,1.02,-2.95,-1.73,-4.75
0.0007933333333333365,0.2,0.15,1.01,-1.82,-2.02,-3.42
0.0007966666666666699,0.17,0.14,1.02,-0.21,-3.4,-3.62
0.0008000000000000033,0.2,0.15,1.02,1.68,-2.84,-2.98
0.0008033333333333367,0.19,0.1,1.03,1.77,-0.95,-1.48
0.00080666666666667,0.19,0.15,1.05,2.85,-7.83,1.08
0.0008100000000000034,0.22,0.17,1.04,1.15,-7.68,2.34
0.0008133333333333368,0.19,0.15,1.03,3.5,-14.03,2.69
0.0008166666666666702,0.2,0.16,1.02,4.52,-11.69,0.11
0.0008200000000000036,0.25,0.19,1.07,-0.92,-5.47,-2.49
0.0008233333333333369,0.26,0.18,1.03,-0.63,1.05,-3.8
0.0008266666666666703,0.25,0.18,1.0,0.15,-0.81,-2.05
0.0008300000000000037,0.25,0.19,1.04,-2.03,0.31,-2.75
0.0008333333333333371,0.22,0.19,1.04,-2.26,-2.44,-2.47
0.0008366666666666705,0.25,0.2,1.04,-4.61,0.2,-3.37
0.0008400000000000038,0.25,0.19,1.02,-3.36,3.15,-3.51
0.0008433333333333372,0.21,0.2,1.05,-4.96,-1.3,-1.83
0.0008466666666666706,0.24,0.2,1.04,-7.47,-0.7,-1.82
0.000850000000000004,0.22,0.2,1.03,-8.87,2.32,-2.79
0.0008533333333333373,0.24,0.19,1.01,-10.43,5.79,-5.01
0.0008566666666666707,0.2,0.17,0.99,-10.09,0.55,-5.19
0.0008600000000000041,0.21,0.16,0.98,-10.15,2.55,-7.33
0.0008633333333333375,0.22,0.16,0.97,-8.46,-0.72,-7.05
0.0008666666666666709,0.24,0.14,0.96,-5.39,-3.08,-4.64
0.0008700000000000042,0.26,0.15,0.97,-6.23,-1.31,-5.05
0.0008733333333333376,0.23,0.15,0.99,-10.75,1.62,-4.99
0.000876666666666671,0.25,0.16,0.98,-11.37,6.66,-6.03
0.0008800000000000044,0.24,0.16,1.01,-14.37,6.89,-3.13
0.0008833333333333377,0.25,0.13,0.96,-12.35,12.56,-3.33
0.0008866666666666711,0.21,0.13,0.99,-12.21,7.53,-0.2
0.0008900000000000045,0.24,0.12,0.96,-13.04,15.6,-3.71
0.0008933333333333379,0.27,0.12,0.99,-14.61,23.27,-2.46
0.0008966666666666713,0.22,0.1,0.99,-14.58,18.87,-3.98
0.0009000000000000046,0.15,0.12,0.99,-12.06,11.69,-3.31
0.000903333333333338,0.18,0.14,1.01,-10.73,6.66,-0.61
0.0009066666666666714,0.18,0.12,0.99,-7.37,6.29,-1.18
0.0009100000000000048,0.16,0.13,1.03,-8.76,4.52,-0.9
0.0009133333333333382,0.22,0.13,1.01,-10.93,9.47,0.09
0.0009166666666666715,0.2,0.12,0.96,-6.47,4.31,4.95
0.0009200000000000049,0.2,0.1,0.95,-2.37,7.24,4.89
0.0009233333333333383,0.14,0.11,0.99,-0.35,3.97,5.59
0.0009266666666666717,0.17,0.11,0.99,1.11,0.05,6.24
0.000930000000000005,0.19,0.1,0.96,4.81,0.55,7.69
0.0009333333333333384,0.19,0.1,0.97,3.82,5.63,4.2
0.0009366666666666718,0.17,0.09,0.98,6.08,9.07,1.13
0.0009400000000000052,0.19,0.09,1.0,9.6,9.19,3.04
0.0009433333333333386,0.24,0.12,1.02,10.17,13.34,5.33
0.0009466666666666719,0.24,0.15,1.03,8.96,13.82,11.45
0.0009500000000000053,0.14,0.14,1.1,3.39,7.69,10.99
0.0009533333333333387,0.11,0.13,1.07,1.28,3.42,8.9
0.0009566666666666721,0.12,0.12,1.06,0.05,1.76,6.95
0.0009600000000000054,0.12,0.12,1.07,-2.31,2.85,4.92
0.0009633333333333388,0.11,0.13,1.07,-4.47,1.97,4.38
0.0009666666666666722,0.13,0.11,1.03,-8.09,6.12,-0.23
0.0009700000000000056,0.12,0.09,1.0,-5.57,2.61,0.92
0.000973333333333339,0.12,0.1,0.99,-3.48,0.63,0.03
0.0009766666666666723,0.11,0.09,1.02,-4.81,2.17,-3.48
0.0009800000000000056,0.16,0.09,0.99,-2.12,0.69,-2.99
0.0009833333333333389,0.17,0.11,0.99,-3.05,0.84,-3.6
