time,acce_x,acce_y,acce_z,gyro_x,gyro_y,gyro_z
0.0,0.26,0.15,0.96,-6.37,0.81,-7.65
3.3333333333333333e-06,0.27,0.18,0.97,-6.78,5.37,-11.65
6.666666666666667e-06,0.28,0.19,0.94,-8.17,8.58,-13.28
9.999999999999999e-06,0.34,0.18,0.84,-1.45,9.47,-11.8
1.3333333333333333e-05,0.3,0.16,0.86,3.01,9.11,-11.05
1.6666666666666667e-05,0.32,0.2,0.96,-2.05,17.63,-12.06
2e-05,0.34,0.22,1.0,-9.3,16.93,-11.07
2.3333333333333336e-05,0.33,0.25,0.96,-8.08,20.02,-8.24
2.666666666666667e-05,0.33,0.25,0.97,-10.23,24.64,-5.86
3.0000000000000004e-05,0.35,0.23,0.96,-10.26,31.22,-2.55
3.3333333333333335e-05,0.3,0.21,0.97,-9.44,34.5,-0.26
3.6666666666666666e-05,0.26,0.19,0.98,-7.71,30.7,0.5
3.9999999999999996e-05,0.21,0.19,1.0,-5.36,24.11,0.44
4.333333333333333e-05,0.19,0.2,1.03,-5.34,17.62,0.64
4.666666666666666e-05,0.18,0.22,1.04,-6.81,9.54,0.09
4.999999999999999e-05,0.19,0.21,1.0,-5.94,4.17,0.11
5.333333333333332e-05,0.18,0.19,0.99,-5.57,-2.67,0.11
5.666666666666665e-05,0.22,0.18,0.94,-4.38,-4.12,0.38
5.999999999999998e-05,0.22,0.18,0.95,-3.77,-2.35,-1.4
6.333333333333332e-05,0.21,0.2,0.99,-5.53,-0.78,-3.02
6.666666666666666e-05,0.23,0.21,1.0,-7.95,-0.09,-3.25
7e-05,0.28,0.21,0.97,-9.53,3.83,-1.83
7.333333333333333e-05,0.28,0.21,0.99,-11.08,10.95,-2.2
7.666666666666667e-05,0.25,0.19,0.96,-12.2,13.33,-1.54
8e-05,0.25,0.17,0.95,-10.34,15.47,-0.61
8.333333333333334e-05,0.23,0.15,0.96,-8.41,13.08,0.61
8.666666666666668e-05,0.23,0.16,0.97,-7.18,13.69,0.29
9.000000000000002e-05,0.17,0.16,0.99,-6.11,12.72,-2.21
9.333333333333336e-05,0.15,0.19,1.07,-9.15,4.9,-2.63
9.66666666666667e-05,0.17,0.18,1.05,-8.56,-1.02,-1.98
0.00010000000000000003,0.2,0.17,1.03,-8.02,-1.44,-1.89
0.00010333333333333337,0.24,0.18,1.03,-8.32,-2.02,-0.23
0.00010666666666666671,0.24,0.16,0.99,-6.44,0.82,-0.64
0.00011000000000000004,0.24,0.15,0.98,-4.89,3.44,-0.96
0.00011333333333333338,0.21,0.16,1.01,-5.31,3.63,-2.05
0.00011666666666666672,0.2,0.18,1.05,-9.21,1.24,-2.47
0.00012000000000000006,0.22,0.17,1.04,-11.62,-1.51,-1.79
0.0001233333333333334,0.23,0.18,1.03,-12.49,-0.99,0.06
0.00012666666666666672,0.26,0.15,1.01,-12.24,2.67,1.44
0.00013000000000000004,0.23,0.14,0.96,-10.41,5.37,1.21
0.00013333333333333337,0.23,0.14,0.99,-8.95,5.76,1.02
0.0001366666666666667,0.23,0.14,0.97,-7.66,5.91,1.6
0.00014000000000000001,0.19,0.15,1.0,-8.87,3.74,0.81
0.00014333333333333334,0.22,0.13,0.98,-7.74,3.91,1.36
0.00014666666666666666,0.24,0.13,0.96,-6.15,4.96,2.85
0.00015,0.21,0.13,0.97,-2.87,2.79,4.15
0.0001533333333333333,0.22,0.12,0.97,-0.7,5.59,2.89
0.00015666666666666663,0.23,0.13,0.98,0.63,5.68,3.66
0.00015999999999999996,0.22,0.11,0.97,1.39,8.26,3.33
0.00016333333333333328,0.22,0.13,0.98,4.37,7.91,4.46
0.0001666666666666666,0.21,0.14,0.95,10.52,7.98,5.91
0.00016999999999999993,0.22,0.14,0.91,17.05,11.77,5.95
0.00017333333333333325,0.17,0.12,0.92,24.35,5.1,7.66
0.00017666666666666658,0.17,0.13,0.92,27.98,-1.11,7.66
0.0001799999999999999,0.17,0.16,1.0,22.26,-4.18,6.72
0.00018333333333333323,0.23,0.18,1.04,13.47,3.37,4.6
0.00018666666666666655,0.24,0.19,1.04,3.98,11.39,3.22
0.00018999999999999987,0.17,0.22,1.11,-5.77,7.15,3.24
0.0001933333333333332,0.2,0.2,1.03,-8.4,8.98,2.79
0.00019666666666666652,0.22,0.19,1.01,-12.21,12.81,2.31
0.00019999999999999985,0.25,0.17,1.0,-14.2,17.89,2.29
0.00020333333333333317,0.21,0.16,0.98,-14.66,17.85,3.91
0.0002066666666666665,0.17,0.16,0.99,-14.49,15.65,4.29
0.00020999999999999982,0.18,0.15,0.98,-13.54,15.89,5.16
0.00021333333333333314,0.2,0.15,0.99,-14.27,21.42,4.2
0.00021666666666666647,0.17,0.16,1.03,-16.6,21.18,4.99
0.0002199999999999998,0.16,0.14,1.0,-15.59,20.27,5.08
0.00022333333333333311,0.12,0.13,0.99,-12.17,14.87,5.28
0.00022666666666666644,0.13,0.12,1.02,-10.17,9.57,6.61
0.00022999999999999976,0.15,0.11,0.99,-7.79,7.88,8.02
0.0002333333333333331,0.18,0.1,0.98,-6.27,12.09,7.91
0.0002366666666666664,0.12,0.12,1.04,-7.33,7.82,8.23
0.00023999999999999974,0.13,0.12,1.02,-6.29,6.92,7.77
0.00024333333333333306,0.11,0.12,1.03,-8.47,4.81,6.58
0.0002466666666666664,0.11,0.13,1.03,-9.05,2.55,5.56
0.00024999999999999973,0.13,0.11,1.02,-8.5,2.46,5.79
0.00025333333333333306,0.15,0.1,1.02,-8.64,4.89,6.53
0.0002566666666666664,0.12,0.11,1.05,-9.48,7.19,4.92
0.0002599999999999997,0.13,0.11,1.03,-8.43,8.38,4.02
0.00026333333333333303,0.12,0.11,1.05,-8.32,7.42,4.32
0.00026666666666666635,0.12,0.1,1.02,-6.98,5.5,4.93
0.0002699999999999997,0.12,0.09,1.0,-5.6,7.5,3.04
0.000273333333333333,0.12,0.09,0.99,-4.26,7.62,1.86
0.0002766666666666663,0.14,0.1,1.0,-4.26,11.95,0.18
0.00027999999999999965,0.1,0.1,1.03,-5.86,9.04,-0.02
0.000283333333333333,0.12,0.1,1.01,-4.27,8.84,0.56
0.0002866666666666663,0.12,0.1,1.03,-4.78,5.18,2.52
0.0002899999999999996,0.12,0.09,1.01,-3.4,4.58,2.99
0.00029333333333333295,0.12,0.07,0.96,1.05,6.03,2.63
0.00029666666666666627,0.1,0.07,0.99,1.33,4.43,1.83
0.0002999999999999996,0.12,0.09,1.02,-0.82,3.13,1.48
0.0003033333333333329,0.08,0.12,1.07,-2.82,-2.56,1.19
0.00030666666666666624,0.11,0.12,1.07,-4.64,-4.26,1.77
0.00030999999999999957,0.14,0.12,1.04,-4.92,-4.46,3.16
0.0003133333333333329,0.13,0.11,1.03,-4.58,-4.26,3.86
0.0003166666666666662,0.15,0.1,1.03,-3.94,-4.6,5.77
0.00031999999999999954,0.15,0.1,1.01,-2.95,-3.4,6.26
0.00032333333333333286,0.12,0.1,1.04,-2.69,-1.98,4.78
0.0003266666666666662,0.12,0.09,1.03,-2.24,-1.56,3.56
0.0003299999999999995,0.11,0.1,1.06,-5.42,-1.53,2.06
0.00033333333333333283,0.13,0.09,1.04,-5.19,-0.5,2.11
0.00033666666666666616,0.12,0.08,1.03,-3.31,-3.19,4.06
0.0003399999999999995,0.12,0.09,1.04,-4.24,-3.88,4.37
0.0003433333333333328,0.1,0.09,1.04,-4.47,-4.43,3.08
0.00034666666666666613,0.12,0.09,1.03,-3.44,-4.75,2.89
0.00034999999999999945,0.13,0.09,1.04,-4.21,-3.74,3.59
0.0003533333333333328,0.11,0.08,1.03,-2.96,-5.48,3.48
0.0003566666666666661,0.12,0.07,0.98,2.38,-5.53,3.59
0.0003599999999999994,0.09,0.06,0.98,7.8,-8.5,3.08
0.00036333333333333275,0.13,0.05,0.94,13.73,-2.47,1.18
0.0003666666666666661,0.09,0.08,0.99,13.88,-8.46,0.76
0.0003699999999999994,0.08,0.11,1.05,6.84,-16.12,-0.38
0.0003733333333333327,0.08,0.14,1.08,-0.21,-26.26,0.98
0.00037666666666666605,0.13,0.13,1.02,-3.65,-29.3,2.03
0.00037999999999999937,0.19,0.11,0.98,-3.48,-24.17,1.89
0.0003833333333333327,0.22,0.09,0.94,-2.5,-15.31,0.84
0.000386666666666666,0.21,0.1,0.95,-2.17,-9.45,0.14
0.00038999999999999934,0.2,0.09,0.95,-1.69,-5.3,-0.72
0.00039333333333333267,0.19,0.08,0.92,1.54,-3.22,-1.16
0.000396666666666666,0.2,0.09,0.95,-0.7,-3.42,-0.53
0.0003999999999999993,0.14,0.09,1.02,-2.98,-10.4,0.79
0.00040333333333333264,0.18,0.11,0.97,-3.68,-8.46,0.69
0.00040666666666666596,0.19,0.1,0.94,-2.81,-6.85,1.33
0.0004099999999999993,0.19,0.07,0.94,-2.12,-3.88,-0.93
0.0004133333333333326,0.2,0.07,0.93,-1.44,0.15,-1.79
0.00041666666666666593,0.21,0.06,0.91,0.84,1.92,-2.58
0.00041999999999999926,0.21,0.06,0.91,3.24,5.05,-2.05
0.0004233333333333326,0.19,0.06,0.94,4.37,3.04,-1.3
0.0004266666666666659,0.18,0.07,0.94,6.26,0.69,-1.07
0.00042999999999999923,0.17,0.09,0.98,4.11,-4.6,0.6
0.00043333333333333255,0.17,0.09,1.0,3.59,-8.81,0.67
0.0004366666666666659,0.19,0.09,0.99,3.66,-10.66,2.6
0.0004399999999999992,0.22,0.1,0.97,3.27,-6.63,2.96
0.0004433333333333325,0.22,0.11,0.98,2.44,-1.71,2.82
0.00044666666666666585,0.2,0.11,1.01,1.69,2.9,0.67
0.0004499999999999992,0.19,0.13,1.03,0.37,2.03,0.72
0.0004533333333333325,0.2,0.12,1.03,0.14,2.52,1.13
0.0004566666666666658,0.19,0.13,1.04,-2.69,3.15,1.01
0.00045999999999999915,0.17,0.13,1.07,-5.74,-1.48,2.38
0.00046333333333333247,0.16,0.13,1.05,-6.44,-5.3,3.3
0.0004666666666666658,0.2,0.12,1.02,-6.6,-4.44,3.73
0.0004699999999999991,0.22,0.1,1.0,-7.24,0.44,3.04
0.00047333333333333244,0.21,0.09,1.0,-6.82,5.68,1.08
0.00047666666666666577,0.21,0.1,1.0,-6.02,6.66,2.31
0.0004799999999999991,0.18,0.1,1.03,-8.49,3.65,3.15
0.0004833333333333324,0.17,0.1,1.04,-9.91,2.06,3.31
0.00048666666666666574,0.21,0.09,0.99,-9.63,5.66,3.45
0.0004899999999999991,0.2,0.07,0.99,-9.07,5.63,4.53
0.0004933333333333325,0.18,0.07,0.98,-8.89,8.18,2.66
0.0004966666666666659,0.18,0.05,0.95,-6.7,8.5,3.01
0.0004999999999999993,0.16,0.05,0.96,-5.37,7.48,2.03
0.0005033333333333326,0.17,0.06,0.99,-5.48,5.6,2.14
0.000506666666666666,0.16,0.06,0.98,-4.72,4.27,2.21
0.0005099999999999994,0.16,0.07,1.03,-6.63,0.78,3.31
0.0005133333333333328,0.17,0.07,1.0,-6.46,3.24,2.58
0.0005166666666666661,0.16,0.06,0.99,-5.83,3.6,1.83
0.0005199999999999995,0.16,0.06,1.0,-6.38,3.79,1.05
0.0005233333333333329,0.15,0.06,0.99,-6.56,2.27,1.3
0.0005266666666666663,0.18,0.05,0.98,-5.01,2.08,1.5
0.0005299999999999997,0.18,0.04,0.97,-3.24,3.13,2.37
0.000533333333333333,0.17,0.06,0.98,-1.83,3.27,2.46
0.0005366666666666664,0.16,0.06,0.99,-1.47,3.82,1.68
0.0005399999999999998,0.16,0.06,0.99,-0.98,2.12,2.12
0.0005433333333333332,0.17,0.08,1.02,-3.79,2.9,1.48
0.0005466666666666665,0.14,0.07,1.02,-5.65,4.44,-1.02
0.0005499999999999999,0.16,0.05,0.99,-5.21,4.17,-1.22
0.0005533333333333333,0.19,0.05,1.0,-4.82,8.06,-1.27
0.0005566666666666667,0.19,0.05,0.99,-4.31,9.45,-0.53
0.0005600000000000001,0.15,0.05,0.99,-2.73,8.2,-1.59
0.0005633333333333334,0.14,0.05,1.02,-2.79,6.14,-1.73
0.0005666666666666668,0.17,0.05,1.02,-2.58,6.37,-1.21
0.0005700000000000002,0.16,0.06,1.02,-4.4,9.74,-3.33
0.0005733333333333336,0.14,0.06,1.04,-4.67,6.85,-2.52
0.000576666666666667,0.18,0.05,1.0,-4.12,7.21,-1.51
0.0005800000000000003,0.16,0.05,1.01,-3.28,7.59,-1.05
0.0005833333333333337,0.14,0.05,1.03,-2.32,8.21,-2.05
0.0005866666666666671,0.12,0.06,1.03,-1.31,6.92,-2.93
0.0005900000000000005,0.11,0.06,1.05,-0.24,2.09,-2.06
0.0005933333333333338,0.14,0.06,1.03,0.69,0.72,-0.47
0.0005966666666666672,0.15,0.05,1.03,1.95,-1.69,0.72
0.0006000000000000006,0.12,0.03,1.0,3.88,-4.29,1.5
0.000603333333333334,0.14,0.05,1.01,5.59,-7.74,3.07
0.0006066666666666674,0.12,0.05,1.01,7.01,-12.79,4.9
0.0006100000000000007,0.12,0.06,1.01,6.47,-13.57,3.85
0.0006133333333333341,0.13,0.06,0.99,7.19,-13.79,3.42
0.0006166666666666675,0.12,0.06,1.0,7.83,-17.51,3.83
0.0006200000000000009,0.13,0.07,0.99,8.37,-19.44,3.18
0.0006233333333333342,0.15,0.07,0.97,8.64,-21.18,4.38
0.0006266666666666676,0.17,0.07,0.95,8.85,-23.34,5.11
0.000630000000000001,0.19,0.07,0.94,9.77,-12.43,0.12
0.0006333333333333344,0.19,0.06,0.94,10.55,-10.11,-1.25
0.0006366666666666678,0.23,0.1,0.95,11.44,-4.85,-2.43
0.0006400000000000011,0.21,0.1,0.96,10.0,-4.17,-2.27
0.0006433333333333345,0.23,0.08,0.97,3.27,1.57,-3.37
0.0006466666666666679,0.2,0.07,0.94,6.34,0.87,-1.04
0.0006500000000000013,0.23,0.09,0.97,2.82,9.82,-3.08
0.0006533333333333346,0.18,0.1,1.03,3.11,6.9,-0.12
0.000656666666666668,0.14,0.09,1.0,5.56,4.87,-1.97
0.0006600000000000014,0.17,0.09,1.03,6.99,2.84,-0.9
0.0006633333333333348,0.16,0.1,1.05,5.02,1.88,-0.34
0.0006666666666666682,0.15,0.08,1.05,3.19,0.2,-0.06
0.0006700000000000015,0.14,0.08,1.06,1.89,-3.18,0.5
0.0006733333333333349,0.16,0.07,1.02,2.32,-2.32,0.26
0.0006766666666666683,0.16,0.08,1.04,0.47,0.56,-1.56
0.0006800000000000017,0.15,0.08,1.02,1.28,-1.01,-1.59
0.000683333333333335,0.14,0.1,1.04,0.2,-4.38,-1.01
0.0006866666666666684,0.14,0.1,1.05,-0.75,-8.37,-0.72
0.0006900000000000018,0.16,0.08,1.01,-1.33,-7.28,-3.01
0.0006933333333333352,0.18,0.06,0.97,0.26,-8.38,-2.53
0.0006966666666666686,0.22,0.06,0.92,3.54,-4.41,-2.87
0.0007000000000000019,0.2,0.07,0.95,6.64,-1.86,-3.36
0.0007033333333333353,0.18,0.06,0.94,9.91,-1.65,-4.64
0.0007066666666666687,0.2,0.08,0.96,10.55,0.23,-4.46
0.0007100000000000021,0.15,0.11,1.07,3.56,-7.6,-3.47
0.0007133333333333355,0.2,0.1,1.02,1.74,-6.23,-3.31
0.0007166666666666688,0.23,0.09,0.96,2.24,-4.98,-2.2
0.0007200000000000022,0.21,0.09,0.97,3.83,-2.76,-2.47
0.0007233333333333356,0.21,0.1,1.0,2.02,0.95,-5.01
0.000726666666666669,0.19,0.13,1.06,-2.09,0.67,-5.92
0.0007300000000000023,0.19,0.13,1.05,-3.15,-3.56,-4.05
0.0007333333333333357,0.21,0.15,1.05,-4.46,-4.26,-2.92
0.0007366666666666691,0.24,0.15,1.05,-8.05,0.95,-3.22
0.0007400000000000025,0.21,0.14,1.07,-11.82,1.98,-3.77
0.0007433333333333359,0.24,0.13,1.04,-15.13,7.22,-4.41
0.0007466666666666692,0.21,0.12,1.03,-15.04,8.23,-3.54
0.0007500000000000026,0.18,0.14,1.07,-19.83,1.97,-1.62
0.000753333333333336,0.18,0.11,1.05,-21.45,1.02,-1.22
0.0007566666666666694,0.22,0.1,1.04,-24.72,7.07,-1.5
0.0007600000000000028,0.17,0.08,0.99,-22.72,4.89,-0.81
0.0007633333333333361,0.16,0.09,1.0,-21.68,1.37,-0.52
0.0007666666666666695,0.2,0.05,0.97,-20.29,2.53,-0.12
0.0007700000000000029,0.2,0.06,0.98,-20.23,3.91,0.44
0.0007733333333333363,0.18,0.05,1.03,-27.66,15.28,-3.07
0.0007766666666666696,0.19,0.02,0.99,-26.0,8.69,-0.6
0.000780000000000003,0.12,0.02,0.93,-19.44,-4.12,1.82
0.0007833333333333364,0.19,0.0,0.93,-16.56,1.07,0.27
0.0007866666666666698,0.18,0.01,0.99,-20.79,12.29,-2.82
0.0007900000000000032,0.17,0.01,1.0,-22.95,8.08,-1.74
0.0007933333333333365,0.11,-0.11,0.97,-18.37,3.82,-1.19
0.0007966666666666699,0.16,-0.01,0.95,-13.4,-2.46,0.79
0.0008000000000000033,0.19,-0.01,0.96,-11.3,9.82,-0.5
0.0008033333333333367,0.13,-0.02,0.99,-10.76,-3.92,2.21
0.00080666666666667,0.2,-0.02,0.94,-7.74,3.56,0.24
0.0008100000000000034,0.17,-0.02,0.95,-3.89,4.95,0.15
0.0008133333333333368,0.14,-0.01,0.98,-2.26,3.37,-0.96
0.0008166666666666702,0.17,0.0,1.01,-2.66,3.53,-1.5
0.0008200000000000036,0.15,0.01,1.04,-3.63,-1.6,0.43
0.0008233333333333369,0.18,0.02,1.02,-5.08,-3.07,1.36
0.0008266666666666703,0.19,0.01,1.01,-4.29,0.41,0.78
0.0008300000000000037,0.21,0.0,1.03,-7.28,5.13,-1.11
0.0008333333333333371,0.14,0.02,1.02,-4.96,0.2,-0.46
0.0008366666666666705,0.18,0.02,1.03,-6.55,3.5,-1.66
0.0008400000000000038,0.19,0.01,1.02,-6.5,5.57,-0.76
0.0008433333333333372,0.18,0.01,1.01,-5.47,8.27,-0.9
0.0008466666666666706,0.14,0.02,1.05,-5.68,4.56,0.11
0.000850000000000004,0.17,0.03,1.09,-11.73,5.68,-1.04
0.0008533333333333373,0.16,0.01,1.02,-10.05,5.5,-1.15
0.0008566666666666707,0.16,0.02,1.03,-10.95,-0.52,1.95
0.0008600000000000041,0.2,0.01,1.05,-13.31,2.08,3.36
0.0008633333333333375,0.16,-0.0,1.01,-12.52,1.57,3.42
0.0008666666666666709,0.11,-0.02,1.02,-11.94,-2.34,2.61
0.0008700000000000042,0.12,-0.02,1.02,-11.56,-6.7,2.92
0.0008733333333333376,0.15,-0.03,1.01,-12.32,-5.27,2.32
0.000876666666666671,0.12,-0.03,0.99,-11.98,-3.45,-0.05
0.0008800000000000044,0.12,-0.04,1.0,-12.29,-9.6,0.67
0.0008833333333333377,0.19,-0.05,0.95,-11.11,-5.79,1.68
0.0008866666666666711,0.17,-0.07,0.94,-9.19,-2.12,-0.26
0.0008900000000000045,0.14,-0.07,0.94,-7.47,-4.08,-1.3
0.0008933333333333379,0.14,-0.07,0.96,-5.51,-7.13,-2.02
0.0008966666666666713,0.18,-0.07,0.95,-4.06,-7.97,-0.82
0.0009000000000000046,0.19,-0.07,0.98,-3.25,-8.75,0.92
0.000903333333333338,0.18,-0.06,0.98,-2.9,-9.18,0.84
0.0009066666666666714,0.18,-0.06,0.97,-2.78,-6.31,-1.45
0.0009100000000000048,0.18,-0.06,0.98,-1.36,-1.66,-4.55
0.0009133333333333382,0.2,-0.05,0.99,-3.47,7.59,-6.43
0.0009166666666666715,0.15,-0.04,0.99,-2.26,-1.31,-3.74
0.0009200000000000049,0.18,-0.04,0.99,-1.56,2.38,-4.53
0.0009233333333333383,0.17,0.0,1.03,-1.22,-2.79,-2.72
0.0009266666666666717,0.15,-0.05,0.95,1.97,-3.88,-3.42
0.000930000000000005,0.16,-0.05,1.0,3.92,-9.4,-1.21
0.0009333333333333384,0.15,-0.05,1.03,2.73,-11.66,-1.69
0.0009366666666666718,0.13,-0.04,1.09,-0.72,-20.75,-0.92
0.0009400000000000052,0.14,-0.02,1.05,-1.69,-29.69,-1.48
0.0009433333333333386,0.19,-0.02,1.09,-6.35,-24.82,-3.8
0.0009466666666666719,0.21,-0.02,1.06,-5.83,-19.65,-5.91
0.0009500000000000053,0.27,-0.05,1.01,-3.42,-11.21,-6.6
0.0009533333333333387,0.26,-0.04,1.01,-1.34,-5.59,-6.55
0.0009566666666666721,0.23,-0.04,1.01,0.15,-4.24,-6.75
0.0009600000000000054,0.23,-0.04,1.03,-0.49,-3.47,-6.52
0.0009633333333333388,0.25,-0.01,1.08,-2.73,-3.02,-5.16
0.0009666666666666722,0.2,-0.03,1.09,-10.6,-6.47,-4.87
0.0009700000000000056,0.22,-0.03,1.04,-7.76,-7.24,-4.21
0.000973333333333339,0.27,-0.22,0.86,-1.44,-7.05,-3.86
0.0009766666666666723,0.29,-0.04,1.01,-3.15,4.95,-3.98
0.0009800000000000056,0.23,-0.02,1.03,-6.89,5.22,-4.58
0.0009833333333333389,0.2,-0.02,1.04,-7.4,1.94,-4.61
