time,acce_x,acce_y,acce_z,gyro_x,gyro_y,gyro_z
0.0,0.25,0.13,1.04,-5.91,2.61,7.92
3.3333333333333333e-06,0.22,0.12,1.04,-10.18,5.85,8.29
6.666666666666667e-06,0.18,0.09,0.99,-8.34,10.08,7.04
9.999999999999999e-06,0.14,0.09,1.05,-10.5,8.79,4.67
1.3333333333333333e-05,0.11,0.1,1.11,-9.86,0.87,6.34
1.6666666666666667e-05,0.11,0.09,1.09,-10.49,-3.91,5.11
2e-05,0.12,0.08,1.08,-10.75,-5.92,2.72
2.3333333333333336e-05,0.15,0.1,1.12,-13.62,-6.93,3.01
2.666666666666667e-05,0.13,0.09,1.08,-12.84,-9.36,3.95
3.0000000000000004e-05,0.14,0.09,1.08,-14.55,-11.98,4.24
3.3333333333333335e-05,0.14,0.11,1.08,-17.56,-14.84,4.73
3.6666666666666666e-05,0.17,0.09,1.03,-17.53,-11.18,3.33
3.9999999999999996e-05,0.19,0.08,0.98,-15.68,-12.7,3.94
4.333333333333333e-05,0.23,0.07,0.87,-2.95,-15.88,7.16
4.666666666666666e-05,0.21,0.06,0.87,1.83,-7.97,8.26
4.999999999999999e-05,0.15,0.07,0.91,8.96,-21.22,13.42
5.333333333333332e-05,0.26,0.15,0.94,-4.67,-3.5,7.88
5.666666666666665e-05,0.2,0.1,1.03,-17.89,-7.48,9.24
5.999999999999998e-05,0.24,0.03,0.85,-14.09,-7.42,9.36
6.333333333333332e-05,0.31,-0.01,0.78,-6.17,3.27,12.11
6.666666666666666e-05,0.29,-0.05,0.81,1.89,9.71,19.44
7e-05,0.23,0.01,0.95,0.52,18.12,20.78
7.333333333333333e-05,0.12,0.01,0.97,0.73,21.5,16.78
7.666666666666667e-05,0.07,0.03,1.04,-1.83,18.9,14.18
8e-05,0.02,0.01,1.07,-1.98,11.76,12.92
8.333333333333334e-05,0.05,0.01,1.07,-0.49,11.31,11.77
8.666666666666668e-05,0.06,0.0,1.09,1.5,9.21,10.52
9.000000000000002e-05,0.09,-0.01,1.07,4.73,15.24,7.88
9.333333333333336e-05,0.07,-0.0,1.12,4.46,20.89,3.98
9.66666666666667e-05,0.02,0.03,1.2,-1.95,22.23,1.77
0.00010000000000000003,-0.04,0.05,1.25,-7.16,14.49,-1.34
0.00010333333333333337,-0.07,0.03,1.19,-6.15,1.08,-6.44
0.00010666666666666671,0.0,0.02,1.15,-6.84,-7.73,-9.91
0.00011000000000000004,0.15,0.04,1.13,-7.86,-1.36,-10.35
0.00011333333333333338,0.21,0.06,1.1,-10.67,8.73,-10.21
0.00011666666666666672,0.19,0.06,1.11,-12.46,8.38,-6.61
0.00012000000000000006,0.16,0.05,1.09,-13.37,7.27,-5.02
0.0001233333333333334,0.15,0.04,1.08,-13.48,4.6,-4.11
0.00012666666666666672,0.15,0.03,1.05,-11.01,1.71,-3.25
0.00013000000000000004,0.18,0.02,1.02,-8.38,1.8,-3.21
0.00013333333333333337,0.17,0.04,1.02,-8.69,1.79,-4.18
0.0001366666666666667,0.18,0.07,1.05,-12.72,2.6,-4.15
0.00014000000000000001,0.21,0.07,1.0,-12.53,5.33,-2.72
0.00014333333333333334,0.23,0.08,1.04,-15.21,12.79,-2.41
0.00014666666666666666,0.2,0.08,1.01,-15.51,11.85,1.24
0.00015,0.18,0.05,0.95,-12.09,11.91,2.67
0.0001533333333333333,0.15,0.03,0.93,-8.02,6.37,4.85
0.00015666666666666663,0.17,0.02,0.91,-3.44,5.1,6.79
0.00015999999999999996,0.15,0.02,0.93,-0.9,3.82,8.26
0.00016333333333333328,0.14,0.04,0.99,-2.44,6.82,7.42
0.0001666666666666666,0.09,0.04,1.01,-3.47,8.2,5.3
0.00016999999999999993,0.07,0.03,1.02,-3.95,0.44,5.57
0.00017333333333333325,0.07,0.03,1.03,-8.47,2.17,2.98
0.00017666666666666658,0.02,0.01,1.04,-9.74,-6.32,2.05
0.0001799999999999999,0.09,-0.03,0.94,-5.54,-6.55,1.54
0.00018333333333333323,0.06,-0.04,0.94,0.72,-10.23,-1.16
0.00018666666666666655,0.07,-0.05,0.92,7.02,-19.65,-1.47
0.00018999999999999987,0.12,-0.02,1.0,4.82,-17.68,-2.08
0.0001933333333333332,0.07,0.01,1.07,-1.19,-22.82,-1.27
0.00019666666666666652,0.1,0.04,1.0,-2.93,-24.96,-3.6
0.00019999999999999985,0.14,-0.01,1.02,-1.76,-25.82,-3.3
0.00020333333333333317,0.14,-0.0,0.98,2.49,-31.73,-3.69
0.0002066666666666665,0.22,-0.01,0.94,6.64,-27.31,-3.36
0.00020999999999999982,0.21,-0.02,0.95,11.39,-30.89,-1.48
0.00021333333333333314,0.23,-0.05,0.97,15.56,-25.33,0.93
0.00021666666666666647,0.21,0.04,1.0,17.95,-29.97,2.15
0.0002199999999999998,0.26,0.0,0.95,23.54,-15.04,1.74
0.00022333333333333311,0.3,0.01,0.87,42.89,-1.88,1.73
0.00022666666666666644,0.3,0.02,0.82,53.56,5.91,4.9
0.00022999999999999976,0.16,0.11,1.03,46.92,-5.27,7.22
0.0002333333333333331,0.08,0.12,1.17,30.24,-20.98,2.61
0.0002366666666666664,0.06,0.19,1.24,10.53,-32.81,-6.24
0.00023999999999999974,0.16,0.19,1.18,-4.98,-46.95,-2.44
0.00024333333333333306,0.3,0.18,1.09,-11.95,-34.18,1.05
0.0002466666666666664,0.34,0.11,0.99,-7.65,-24.4,5.13
0.00024999999999999973,0.35,0.08,1.02,-13.16,-6.29,2.96
0.00025333333333333306,0.36,0.08,1.01,-17.97,13.44,0.52
0.0002566666666666664,0.35,0.06,0.95,-18.32,30.14,-0.93
0.0002599999999999997,0.27,0.04,0.97,-14.85,33.88,0.69
0.00026333333333333303,0.25,0.07,1.04,-16.87,38.17,1.3
0.00026666666666666635,0.18,0.06,1.06,-18.53,33.33,2.29
0.0002699999999999997,0.14,0.04,1.03,-18.14,24.4,1.3
0.000273333333333333,0.17,0.02,1.02,-16.76,23.31,0.73
0.0002766666666666663,0.22,0.01,0.98,-15.47,24.95,1.74
0.00027999999999999965,0.21,0.02,0.99,-15.92,30.76,0.27
0.000283333333333333,0.23,0.02,0.99,-17.44,38.87,0.24
0.0002866666666666663,0.25,0.04,0.99,-18.7,42.76,3.13
0.0002899999999999996,0.17,0.02,1.03,-17.71,37.79,5.74
0.00029333333333333295,0.13,0.03,1.02,-16.17,31.27,10.08
0.00029666666666666627,0.08,0.02,1.06,-17.27,15.15,14.03
0.0002999999999999996,0.07,-0.01,1.01,-14.73,1.31,14.12
0.0003033333333333329,0.08,-0.05,0.96,-10.47,3.66,11.3
0.00030666666666666624,0.02,-0.03,0.99,-12.79,-4.43,8.2
0.00030999999999999957,0.1,-0.02,1.0,-11.11,-5.63,7.63
0.0003133333333333329,0.11,-0.03,0.97,-8.21,-11.82,10.21
0.0003166666666666662,0.16,-0.02,0.98,-7.19,-10.32,11.07
0.00031999999999999954,0.16,-0.02,0.98,-6.26,-7.22,10.76
0.00032333333333333286,0.12,-0.03,0.98,-5.34,-7.74,10.47
0.0003266666666666662,0.15,-0.02,0.97,-4.67,-6.44,10.43
0.0003299999999999995,0.12,-0.0,0.99,-6.79,-5.22,8.11
0.00033333333333333283,0.12,-0.03,0.98,-5.25,-8.52,6.69
0.00033666666666666616,0.15,-0.04,0.94,-1.13,-10.52,8.58
0.0003399999999999995,0.16,-0.05,0.95,2.37,-12.96,10.66
0.0003433333333333328,0.16,-0.05,0.95,4.27,-13.05,10.92
0.00034666666666666613,0.14,-0.04,0.97,5.68,-14.32,10.31
0.00034999999999999945,0.14,-0.03,1.01,5.4,-16.02,8.27
0.0003533333333333328,0.16,-0.02,1.01,4.03,-15.16,6.49
0.0003566666666666661,0.19,-0.02,1.0,3.6,-10.67,4.76
0.0003599999999999994,0.21,-0.05,0.95,6.56,-10.12,3.88
0.00036333333333333275,0.21,-0.05,0.94,9.15,-11.51,6.02
0.0003666666666666661,0.21,-0.03,0.93,13.68,-10.24,7.45
0.0003699999999999994,0.16,-0.04,0.94,19.3,-15.34,-0.31
0.0003733333333333327,0.14,-0.01,1.01,14.05,-3.02,-4.02
0.00037666666666666605,0.14,0.01,1.07,9.94,-2.78,-6.67
0.00037999999999999937,0.2,0.03,1.01,11.22,-1.54,-4.27
0.0003833333333333327,0.24,0.04,1.03,8.63,3.31,-1.66
0.000386666666666666,0.24,0.03,1.04,4.64,7.31,4.21
0.00038999999999999934,0.21,0.02,0.99,4.7,6.14,4.82
0.00039333333333333267,0.21,0.03,1.01,3.28,10.76,3.45
0.000396666666666666,0.16,0.02,1.04,2.64,8.81,2.79
0.0003999999999999993,0.14,0.02,1.03,1.19,10.26,1.85
0.00040333333333333264,0.14,0.03,1.03,-0.63,7.02,1.22
0.00040666666666666596,0.17,0.04,1.05,-4.82,8.4,1.18
0.0004099999999999993,0.14,0.04,1.07,-10.08,8.17,2.2
0.0004133333333333326,0.17,0.01,1.02,-10.87,16.37,1.6
0.00041666666666666593,0.1,-0.0,1.01,-9.45,13.28,1.8
0.00041999999999999926,0.1,0.0,1.02,-10.75,12.92,-0.52
0.0004233333333333326,0.12,-0.0,1.02,-11.95,10.89,-1.91
0.0004266666666666659,0.09,-0.02,0.99,-8.93,3.69,-0.95
0.00042999999999999923,0.12,-0.02,1.0,-7.34,1.51,-0.06
0.00043333333333333255,0.12,-0.0,1.02,-7.62,-3.45,2.47
0.0004366666666666659,0.11,-0.02,1.0,-7.31,-8.38,3.68
0.0004399999999999992,0.09,-0.01,1.01,-11.92,-18.09,4.41
0.0004433333333333325,0.08,-0.02,1.05,-16.14,-28.82,4.67
0.00044666666666666585,0.16,-0.05,0.95,-16.75,-15.4,-2.61
0.0004499999999999992,0.2,-0.03,0.95,-17.95,-6.72,-1.47
0.0004533333333333325,0.22,-0.04,0.93,-15.79,2.89,-2.84
0.0004566666666666658,0.21,-0.06,0.92,-9.22,13.33,-2.49
0.00045999999999999915,0.2,-0.06,0.91,-4.37,31.4,-4.81
0.00046333333333333247,0.13,-0.07,0.97,1.57,23.57,-8.37
0.0004666666666666658,0.17,-0.06,0.96,1.37,34.82,-9.07
0.0004699999999999991,0.12,-0.05,1.02,1.91,25.6,-9.04
0.00047333333333333244,0.12,-0.03,1.01,1.04,21.57,-9.04
0.00047666666666666577,0.11,-0.02,1.03,0.02,14.29,-8.49
0.0004799999999999991,0.11,-0.01,1.02,-2.31,0.82,-5.37
0.0004833333333333324,0.12,0.01,1.07,-10.21,-1.11,-9.59
0.00048666666666666574,0.15,-0.05,1.02,-4.76,-5.22,-2.43
0.0004899999999999991,0.17,-0.04,0.95,3.27,-4.23,0.02
0.0004933333333333325,0.16,-0.03,0.97,7.13,-5.11,1.53
0.0004966666666666659,0.12,-0.04,0.98,8.72,-8.08,1.02
0.0004999999999999993,0.1,-0.02,1.0,9.18,-9.18,-0.5
0.0005033333333333326,0.13,-0.01,0.99,9.47,-9.3,-0.14
0.000506666666666666,0.18,-0.06,0.92,11.68,-4.84,2.26
0.0005099999999999994,0.15,-0.07,0.97,11.91,-0.9,-2.0
0.0005133333333333328,0.12,0.0,1.02,7.97,-2.53,-2.64
0.0005166666666666661,0.15,0.02,1.05,6.5,-2.14,1.37
0.0005199999999999995,0.12,0.01,1.05,-0.43,-11.98,2.78
0.0005233333333333329,0.19,0.0,1.01,-1.76,-5.19,1.8
0.0005266666666666663,0.16,0.01,1.05,-5.28,-2.95,1.24
0.0005299999999999997,0.14,0.0,1.03,-5.76,2.15,-1.45
0.000533333333333333,0.16,0.01,1.05,-6.53,5.3,-0.93
0.0005366666666666664,0.14,-0.01,1.03,-6.38,7.59,-2.15
0.0005399999999999998,0.1,0.01,1.08,-6.98,5.27,-2.73
0.0005433333333333332,0.12,0.01,1.09,-9.18,1.5,-1.37
0.0005466666666666665,0.12,0.01,1.09,-11.8,-4.41,0.47
0.0005499999999999999,0.14,-0.02,1.04,-10.14,-6.05,1.39
0.0005533333333333333,0.14,-0.04,1.01,-6.58,-11.18,-0.49
0.0005566666666666667,0.13,-0.04,1.02,-5.02,-10.23,1.65
0.0005600000000000001,0.15,-0.05,1.0,-2.47,-9.3,1.71
0.0005633333333333334,0.19,-0.05,0.95,0.05,0.79,0.37
0.0005666666666666668,0.15,-0.05,0.97,3.34,-0.89,1.48
0.0005700000000000002,0.13,-0.04,1.01,4.11,-4.46,1.63
0.0005733333333333336,0.16,-0.03,1.0,5.65,-4.6,2.03
0.000576666666666667,0.13,-0.03,0.97,9.42,-13.68,4.67
0.0005800000000000003,0.16,-0.0,1.04,5.15,-14.18,5.21
0.0005833333333333337,0.16,-0.02,1.01,5.13,-16.78,5.57
0.0005866666666666671,0.16,-0.02,0.96,7.95,-18.15,4.6
0.0005900000000000005,0.17,-0.02,0.98,7.13,-10.58,0.61
0.0005933333333333338,0.18,-0.01,1.0,6.78,-11.88,1.76
0.0005966666666666672,0.17,-0.02,0.97,7.36,-13.01,1.65
0.0006000000000000006,0.19,0.0,1.03,3.92,-14.27,3.94
0.000603333333333334,0.18,0.02,1.03,0.7,-18.18,7.73
0.0006066666666666674,0.2,0.04,1.05,-2.7,-16.9,7.97
0.0006100000000000007,0.18,-0.01,1.01,-3.34,-16.02,6.15
0.0006133333333333341,0.17,-0.03,0.99,-2.66,-15.08,3.48
0.0006166666666666675,0.21,-0.05,0.97,-4.93,-5.07,0.34
0.0006200000000000009,0.19,-0.02,1.0,-8.14,0.02,-1.13
0.0006233333333333342,0.21,-0.02,1.01,-10.87,10.05,-4.21
0.0006266666666666676,0.14,-0.02,1.04,-13.27,-0.43,-1.68
0.000630000000000001,0.15,-0.02,1.06,-16.47,-1.45,-3.73
0.0006333333333333344,0.18,-0.05,0.99,-14.24,0.35,-4.2
0.0006366666666666678,0.19,-0.07,0.94,-10.75,6.9,-8.14
0.0006400000000000011,0.17,-0.07,0.97,-9.19,5.95,-8.61
0.0006433333333333345,0.19,-0.06,0.98,-8.03,5.53,-8.31
0.0006466666666666679,0.17,-0.05,1.0,-6.87,3.5,-8.05
0.0006500000000000013,0.18,-0.04,1.01,-5.47,0.63,-5.33
0.0006533333333333346,0.15,-0.04,1.02,-7.13,-2.34,-6.11
0.000656666666666668,0.18,-0.07,0.99,-3.63,-6.56,-3.8
0.0006600000000000014,0.23,-0.06,0.96,0.5,-4.92,-2.09
0.0006633333333333348,0.19,-0.05,1.0,-1.5,-2.56,-4.89
0.0006666666666666682,0.17,-0.04,1.01,0.03,-9.6,-3.68
0.0006700000000000015,0.2,-0.03,1.03,-2.35,-11.18,-2.99
0.0006733333333333349,0.23,-0.04,1.01,-1.63,-8.63,-2.7
0.0006766666666666683,0.23,-0.04,1.0,0.92,-6.76,-0.6
0.0006800000000000017,0.21,-0.03,1.03,-1.45,-6.08,-2.46
0.000683333333333335,0.22,-0.05,1.01,-1.04,-3.3,-2.89
0.0006866666666666684,0.2,-0.03,1.03,-0.85,-7.62,-2.96
0.0006900000000000018,0.22,-0.02,1.05,-3.83,-7.48,-2.87
0.0006933333333333352,0.21,-0.02,1.06,-6.27,-10.52,-1.28
0.0006966666666666686,0.21,-0.03,1.05,-8.05,-12.49,-0.53
0.0007000000000000019,0.26,-0.05,1.0,-7.31,-7.95,-0.96
0.0007033333333333353,0.25,-0.06,0.99,-5.56,-5.16,-1.89
0.0007066666666666687,0.24,-0.07,0.98,-5.11,-1.89,-2.87
0.0007100000000000021,0.24,-0.07,0.96,-1.19,-2.76,-1.34
0.0007133333333333355,0.23,-0.07,0.99,-0.23,-2.49,-0.89
0.0007166666666666688,0.23,-0.08,0.96,1.97,-2.7,-1.39
0.0007200000000000022,0.21,-0.06,0.99,4.15,-4.73,-1.98
0.0007233333333333356,0.25,-0.04,1.02,3.57,-7.28,-0.11
0.000726666666666669,0.24,-0.02,1.06,-1.19,-6.38,1.65
0.0007300000000000023,0.24,-0.02,1.04,-2.29,-5.95,2.32
0.0007333333333333357,0.21,-0.03,1.01,-2.18,-9.39,2.99
0.0007366666666666691,0.21,-0.06,1.04,-5.01,-6.95,-0.37
0.0007400000000000025,0.2,-0.03,1.06,-8.4,-9.21,-0.95
0.0007433333333333359,0.25,-0.07,0.94,-4.98,-5.69,-3.07
0.0007466666666666692,0.24,-0.06,0.98,-3.42,-3.47,-3.08
0.0007500000000000026,0.23,-0.05,1.0,-5.47,-2.23,-3.45
0.000753333333333336,0.21,-0.05,1.01,-5.15,-6.09,-2.89
0.0007566666666666694,0.23,-0.06,0.99,-2.06,-14.41,-2.06
0.0007600000000000028,0.22,-0.09,0.96,0.63,-19.21,-3.24
0.0007633333333333361,0.3,-0.07,0.98,-0.2,-7.1,-3.07
0.0007666666666666695,0.26,-0.06,1.0,-0.55,-10.0,-0.95
0.0007700000000000029,0.26,-0.07,0.95,2.41,-11.34,-0.31
0.0007733333333333363,0.27,-0.04,1.04,-4.92,-10.75,-0.63
0.0007766666666666696,0.22,-0.06,1.0,-5.47,-11.98,-1.57
0.000780000000000003,0.26,-0.08,0.95,-3.57,-9.33,-2.46
0.0007833333333333364,0.28,-0.05,1.01,-8.02,-1.13,-5.1
0.0007866666666666698,0.24,-0.06,0.98,-9.31,0.89,-7.08
0.0007900000000000032,0.26,-0.05,0.98,-9.83,3.15,-8.15
0.0007933333333333365,0.29,-0.05,0.99,-11.85,6.0,-7.31
0.0007966666666666699,0.28,-0.07,0.96,-12.24,10.46,-7.97
0.0008000000000000033,0.24,-0.07,0.96,-11.47,8.23,-7.04
0.0008033333333333367,0.27,-0.07,0.93,-10.09,11.76,-7.59
0.00080666666666667,0.26,-0.04,0.92,-5.28,6.9,-2.67
0.0008100000000000034,0.23,-0.03,0.97,-8.89,7.82,-2.52
0.0008133333333333368,0.3,-0.04,0.99,-13.28,8.69,1.15
0.0008166666666666702,0.29,-0.07,0.99,-21.05,20.43,-0.6
0.0008200000000000036,0.3,-0.07,0.95,-19.39,20.35,3.08
0.0008233333333333369,0.21,-0.07,0.94,-18.09,20.18,2.49
0.0008266666666666703,0.22,-0.1,0.97,-19.33,24.32,6.18
0.0008300000000000037,0.19,-0.11,0.97,-20.52,20.05,5.56
0.0008333333333333371,0.19,-0.13,0.9,-13.33,15.04,6.81
0.0008366666666666705,0.17,-0.16,0.88,-1.65,10.84,8.95
0.0008400000000000038,0.15,-0.13,0.95,-2.61,11.47,3.54
0.0008433333333333372,0.09,-0.13,1.06,-7.16,-3.42,0.08
0.0008466666666666706,0.15,-0.19,0.93,-1.95,-7.1,-4.78
0.000850000000000004,0.23,-0.17,0.91,0.12,-6.56,-5.94
0.0008533333333333373,0.22,-0.13,1.0,-0.14,-8.9,-4.52
0.0008566666666666707,0.28,-0.14,0.96,4.95,-6.95,-3.36
0.0008600000000000041,0.25,-0.12,0.99,8.15,-6.17,-1.83
0.0008633333333333375,0.25,-0.1,1.01,7.85,-5.11,-1.53
0.0008666666666666709,0.26,-0.08,1.02,6.81,-5.6,-0.43
0.0008700000000000042,0.26,-0.06,1.04,5.65,-4.0,-0.21
0.0008733333333333376,0.24,-0.06,1.07,0.09,-2.64,-2.32
0.000876666666666671,0.23,-0.06,1.03,0.41,-6.67,-1.68
0.0008800000000000044,0.2,-0.06,1.06,-5.63,-13.8,-12.17
0.0008833333333333377,0.18,-0.11,0.92,-1.6,-11.42,-16.6
0.0008866666666666711,0.38,-0.13,0.85,1.42,14.35,-19.31
0.0008900000000000045,0.29,-0.13,0.94,-0.31,16.78,-16.66
0.0008933333333333379,0.17,-0.13,0.98,0.41,3.74,-12.79
0.0008966666666666713,0.18,-0.12,0.97,2.38,-5.83,-10.49
0.0009000000000000046,0.22,-0.11,0.99,1.25,-8.99,-7.59
0.000903333333333338,0.27,-0.12,0.95,1.56,-0.21,-10.24
0.0009066666666666714,0.24,-0.1,0.97,0.55,3.02,-11.88
0.0009100000000000048,0.26,-0.07,1.03,-4.34,9.28,-13.88
0.0009133333333333382,0.23,-0.07,1.06,-9.34,9.69,-15.94
0.0009166666666666715,0.25,-0.06,1.04,-10.66,5.63,-13.36
0.0009200000000000049,0.31,-0.05,1.07,-16.76,13.91,-12.98
0.0009233333333333383,0.24,-0.05,1.03,-11.92,8.35,-5.54
0.0009266666666666717,0.19,-0.09,0.99,-8.15,5.86,-5.11
0.000930000000000005,0.19,-0.06,1.04,-9.91,6.63,-4.49
0.0009333333333333384,0.21,-0.1,1.0,-8.92,-1.79,-2.32
0.0009366666666666718,0.23,-0.12,0.92,-1.83,-4.7,-0.84
0.0009400000000000052,0.23,-0.09,1.0,0.76,-7.27,1.73
0.0009433333333333386,0.23,-0.05,1.1,-7.76,-3.16,2.75
0.0009466666666666719,0.19,-0.06,1.05,-9.79,2.61,0.87
0.0009500000000000053,0.16,-0.12,0.92,0.11,-13.98,2.26
0.0009533333333333387,0.26,-0.1,1.03,-5.6,-6.05,0.73
0.0009566666666666721,0.23,-0.17,0.99,-12.24,-1.59,-2.11
0.0009600000000000054,0.18,-0.13,0.89,-4.93,-4.76,-1.08
0.0009633333333333388,0.2,-0.15,0.91,1.33,-14.61,1.27
0.0009666666666666722,0.28,-0.15,0.94,-1.19,-3.79,1.15
0.0009700000000000056,0.22,-0.11,1.01,0.5,-15.51,4.35
0.000973333333333339,0.24,-0.12,0.99,-8.73,-0.82,1.39
0.0009766666666666723,0.17,-0.09,0.97,-4.67,-13.42,-0.6
