time,accl_x,accl_y,accl_z,gyro_x,gyro_y,gyro_z
0.0,0.4,0.35,0.87,-3.86,6.15,2.85
3.3333333333333333e-06,0.4,0.35,0.89,-4.15,5.94,4.41
6.666666666666667e-06,0.4,0.34,0.89,-5.28,6.38,5.39
9.999999999999999e-06,0.4,0.32,0.88,-6.44,8.69,4.03
1.3333333333333333e-05,0.42,0.31,0.85,-5.07,14.85,3.25
1.6666666666666667e-05,0.4,0.3,0.86,-3.07,16.31,2.67
2e-05,0.39,0.32,0.88,-2.78,18.93,3.05
2.3333333333333336e-05,0.37,0.33,0.89,-2.99,18.78,2.96
2.666666666666667e-05,0.34,0.34,0.91,-2.87,11.98,4.6
3.0000000000000004e-05,0.35,0.32,0.91,-2.43,7.4,5.47
3.3333333333333335e-05,0.37,0.31,0.9,-1.1,6.08,6.53
3.6666666666666666e-05,0.36,0.32,0.91,-1.45,6.7,6.63
3.9999999999999996e-05,0.33,0.34,0.94,-2.92,5.88,5.73
4.333333333333333e-05,0.34,0.32,0.92,-2.79,4.75,4.75
4.666666666666666e-05,0.35,0.33,0.91,-3.83,5.94,3.48
4.999999999999999e-05,0.35,0.31,0.94,-4.95,5.05,4.34
5.333333333333332e-05,0.36,0.31,0.92,-4.41,3.01,4.82
5.666666666666665e-05,0.35,0.31,0.9,-4.03,5.82,4.03
5.999999999999998e-05,0.35,0.32,0.94,-4.87,5.59,5.3
6.333333333333332e-05,0.34,0.32,0.92,-4.05,1.94,6.32
6.666666666666666e-05,0.34,0.32,0.92,-4.18,1.28,5.95
7e-05,0.34,0.33,0.94,-7.02,3.01,5.05
7.333333333333333e-05,0.36,0.33,0.94,-7.74,3.34,7.25
7.666666666666667e-05,0.36,0.3,0.92,-7.95,7.68,6.47
8e-05,0.35,0.31,0.94,-7.77,6.63,6.47
8.333333333333334e-05,0.35,0.32,0.94,-7.74,6.4,6.81
8.666666666666668e-05,0.35,0.3,0.93,-7.07,8.03,7.4
9.000000000000002e-05,0.33,0.31,0.95,-6.99,6.52,8.05
9.333333333333336e-05,0.32,0.31,0.97,-9.68,4.05,7.88
9.66666666666667e-05,0.3,0.3,0.95,-8.72,-1.08,7.31
0.00010000000000000003,0.33,0.29,0.93,-9.01,4.32,5.5
0.00010333333333333337,0.33,0.29,0.95,-8.27,5.42,5.88
0.00010666666666666671,0.32,0.29,0.95,-8.21,5.65,6.0
0.00011000000000000004,0.32,0.29,0.97,-10.11,5.33,5.91
0.00011333333333333338,0.31,0.28,0.96,-10.67,2.52,6.61
0.00011666666666666672,0.32,0.27,0.95,-9.77,3.79,6.05
0.00012000000000000006,0.32,0.26,0.94,-9.3,5.02,4.4
0.0001233333333333334,0.3,0.27,0.97,-9.15,4.61,2.24
0.00012666666666666672,0.32,0.28,0.98,-8.79,3.19,2.4
0.00013000000000000004,0.32,0.28,0.99,-10.26,2.34,2.92
0.00013333333333333337,0.33,0.29,0.99,-11.31,3.91,3.34
0.0001366666666666667,0.33,0.28,0.98,-11.42,2.69,3.39
0.00014000000000000001,0.34,0.28,0.97,-11.98,3.59,4.15
0.00014333333333333334,0.31,0.28,0.98,-12.76,1.37,4.17
0.00014666666666666666,0.31,0.27,0.96,-13.07,-0.92,3.97
0.00015,0.31,0.24,0.93,-12.69,-0.05,2.67
0.0001533333333333333,0.32,0.24,0.9,-11.15,0.5,2.03
0.00015666666666666663,0.33,0.21,0.86,-7.97,4.15,1.05
0.00015999999999999996,0.33,0.21,0.87,-5.71,4.56,0.72
0.00016333333333333328,0.33,0.22,0.89,-4.41,0.73,1.33
0.0001666666666666666,0.34,0.22,0.87,-3.15,1.05,1.33
0.00016999999999999993,0.35,0.22,0.89,-1.95,3.16,1.01
0.00017333333333333325,0.35,0.24,0.9,-3.34,6.06,0.92
0.00017666666666666658,0.33,0.24,0.92,-5.48,9.4,-1.28
0.0001799999999999999,0.36,0.26,0.93,-7.71,12.93,-0.67
0.00018333333333333323,0.35,0.27,0.95,-9.21,12.72,0.02
0.00018666666666666655,0.35,0.28,0.93,-10.72,17.15,-1.15
0.00018999999999999987,0.33,0.27,0.97,-12.56,16.31,-1.15
0.0001933333333333332,0.33,0.25,0.95,-12.09,12.61,1.18
0.00019666666666666652,0.32,0.22,0.93,-10.6,12.18,1.1
0.00019999999999999985,0.31,0.21,0.94,-8.44,10.93,1.3
0.00020333333333333317,0.32,0.22,0.96,-7.57,7.77,2.56
0.0002066666666666665,0.31,0.23,0.97,-7.86,7.57,3.94
0.00020999999999999982,0.33,0.22,0.98,-9.53,6.56,4.85
0.00021333333333333314,0.33,0.22,0.98,-9.04,7.59,4.64
0.00021666666666666647,0.32,0.22,0.98,-8.85,10.46,3.53
0.0002199999999999998,0.34,0.23,1.01,-9.21,11.65,5.33
0.00022333333333333311,0.28,0.23,1.0,-11.19,8.63,6.82
0.00022666666666666644,0.28,0.21,1.0,-11.74,8.84,5.11
0.00022999999999999976,0.3,0.2,1.0,-11.24,6.58,5.89
0.0002333333333333331,0.31,0.21,0.99,-9.85,8.41,5.36
0.0002366666666666664,0.3,0.2,1.01,-9.53,5.33,6.6
0.00023999999999999974,0.29,0.21,1.03,-11.73,3.48,6.17
0.00024333333333333306,0.28,0.22,1.03,-11.6,2.81,5.34
0.0002466666666666664,0.31,0.21,0.99,-12.76,2.96,6.81
0.00024999999999999973,0.28,0.2,1.01,-13.31,1.57,5.37
0.00025333333333333306,0.28,0.19,0.99,-11.34,-1.5,5.27
0.0002566666666666664,0.3,0.2,0.99,-11.53,-1.07,7.11
0.0002599999999999997,0.28,0.21,1.04,-12.2,-3.42,8.64
0.00026333333333333303,0.28,0.2,1.0,-11.42,-8.67,10.27
0.00026666666666666635,0.27,0.2,1.02,-15.69,-5.37,8.02
0.0002699999999999997,0.25,0.18,1.01,-15.91,-11.18,8.52
0.000273333333333333,0.28,0.14,0.95,-4.85,-14.64,10.46
0.0002766666666666663,0.27,0.13,0.88,-5.4,-12.64,9.11
0.00027999999999999965,0.31,0.15,1.02,-13.91,-5.57,6.15
0.000283333333333333,0.27,0.15,0.98,-11.11,-17.98,5.8
0.0002866666666666663,0.35,0.15,0.91,-12.46,-9.28,7.65
0.0002899999999999996,0.27,0.14,0.98,-12.43,-11.79,5.77
0.00029333333333333295,0.3,0.12,0.92,-9.51,-11.15,6.52
0.00029666666666666627,0.3,0.12,0.94,-9.8,-13.11,4.79
0.0002999999999999996,0.3,0.11,0.92,-7.34,-12.32,3.73
0.0003033333333333329,0.33,0.13,0.95,-8.55,-9.39,3.86
0.00030666666666666624,0.3,0.12,0.95,-9.07,-11.05,2.92
0.00030999999999999957,0.3,0.12,0.94,-9.48,-10.89,2.05
0.0003133333333333329,0.32,0.12,0.93,-8.53,-10.55,0.72
0.0003166666666666662,0.35,0.12,0.91,-7.76,-6.6,0.7
0.00031999999999999954,0.35,0.13,0.91,-7.48,-3.4,0.7
0.00032333333333333286,0.35,0.12,0.91,-6.84,-1.31,-0.75
0.0003266666666666662,0.35,0.11,0.91,-5.68,-0.55,-1.62
0.0003299999999999995,0.35,0.11,0.91,-4.96,2.17,-2.38
0.00033333333333333283,0.36,0.12,0.91,-5.01,3.62,-2.87
0.00033666666666666616,0.36,0.11,0.92,-4.82,4.52,-3.34
0.0003399999999999995,0.35,0.12,0.93,-4.29,5.68,-3.45
0.0003433333333333328,0.34,0.13,0.94,-2.95,4.76,-2.7
0.00034666666666666613,0.34,0.14,0.94,-3.85,8.06,-0.81
0.00034999999999999945,0.35,0.14,0.94,-5.21,5.76,2.52
0.0003533333333333328,0.32,0.12,0.93,-5.08,1.94,3.42
0.0003566666666666661,0.33,0.1,0.9,-3.83,4.5,1.19
0.0003599999999999994,0.34,0.07,0.89,-2.24,5.66,2.02
0.00036333333333333275,0.33,0.08,0.89,-0.73,7.05,0.32
0.0003666666666666661,0.31,0.09,0.92,-0.92,9.04,-2.4
0.0003699999999999994,0.31,0.09,0.92,1.04,5.74,-2.21
0.0003733333333333327,0.33,0.1,0.91,2.52,7.05,-2.6
0.00037666666666666605,0.33,0.1,0.92,4.76,7.16,-2.87
0.00037999999999999937,0.33,0.12,0.94,4.84,7.11,-1.94
0.0003833333333333327,0.34,0.13,0.93,2.56,12.14,-1.04
0.000386666666666666,0.34,0.15,0.93,-2.24,21.15,-0.2
0.00038999999999999934,0.36,0.18,0.96,-13.01,34.89,6.82
0.00039333333333333267,0.33,0.17,0.99,-21.53,43.48,8.95
0.000396666666666666,0.27,0.11,0.99,-20.26,27.65,8.82
0.0003999999999999993,0.34,0.08,0.96,-16.55,21.3,11.91
0.00040333333333333264,0.39,0.06,0.9,-14.41,25.74,10.99
0.00040666666666666596,0.32,0.11,0.98,-19.08,44.73,-0.34
0.0004099999999999993,0.26,0.04,0.92,-9.37,41.18,-3.51
0.0004133333333333326,0.27,0.08,1.0,-8.56,33.73,-2.47
0.00041666666666666593,0.27,0.1,1.04,-9.8,21.94,1.69
0.00041999999999999926,0.25,0.08,1.03,-7.79,12.09,3.44
0.0004233333333333326,0.23,0.08,1.02,-4.29,9.22,1.69
0.0004266666666666659,0.18,0.1,1.08,-6.82,-0.37,2.0
0.00042999999999999923,0.25,0.09,1.05,-8.92,-0.06,3.62
0.00043333333333333255,0.24,0.1,1.02,-7.4,-5.83,5.76
0.0004366666666666659,0.23,0.09,1.01,-6.99,-2.98,4.9
0.0004399999999999992,0.25,0.09,1.03,-7.54,-0.5,4.7
0.0004433333333333325,0.25,0.08,1.01,-7.48,-0.53,4.99
0.00044666666666666585,0.23,0.07,1.03,-8.58,2.99,4.15
0.0004499999999999992,0.21,0.07,1.04,-8.34,-0.76,4.6
0.0004533333333333325,0.24,0.07,1.01,-7.15,-0.61,5.79
0.0004566666666666658,0.2,0.06,1.01,-5.45,1.28,3.68
0.00045999999999999915,0.23,0.07,1.05,-7.27,-4.79,5.57
0.00046333333333333247,0.21,0.07,1.04,-7.74,-8.31,6.14
0.0004666666666666658,0.23,0.07,1.02,-6.56,-9.02,6.41
0.0004699999999999991,0.21,0.06,1.02,-7.31,-12.47,6.7
0.00047333333333333244,0.26,0.05,0.99,-6.44,-5.88,4.87
0.00047666666666666577,0.22,0.06,1.0,-5.74,-6.73,3.25
0.0004799999999999991,0.23,0.07,1.03,-6.87,-11.05,4.61
0.0004833333333333324,0.22,0.05,0.99,-4.14,-15.86,5.27
0.00048666666666666574,0.24,0.03,0.96,-3.71,-15.97,4.55
0.0004899999999999991,0.24,0.04,1.0,-5.22,-15.34,4.58
0.0004933333333333325,0.28,0.06,0.96,-5.16,-11.4,4.08
0.0004966666666666659,0.26,0.04,0.95,-4.18,-5.82,1.33
0.0004999999999999993,0.22,0.05,0.98,-3.69,-6.87,-2.08
0.0005033333333333326,0.27,0.04,0.98,-3.98,-9.6,-1.39
0.000506666666666666,0.26,0.01,0.93,-0.93,-8.49,-1.53
0.0005099999999999994,0.26,0.03,0.98,0.52,-7.74,-1.02
0.0005133333333333328,0.28,0.05,0.99,0.17,-10.38,-0.2
0.0005166666666666661,0.28,0.05,0.97,1.22,-10.73,0.05
0.0005199999999999995,0.27,0.07,1.01,0.29,-11.42,0.02
0.0005233333333333329,0.26,0.09,1.04,-2.67,-18.56,2.0
0.0005266666666666663,0.26,0.06,0.99,-2.46,-22.73,2.17
0.0005299999999999997,0.27,0.04,0.97,-1.77,-24.29,1.68
0.000533333333333333,0.3,0.04,0.99,-1.19,-28.75,2.84
0.0005366666666666664,0.33,0.04,0.93,1.71,-24.5,-0.53
0.0005399999999999998,0.35,0.04,0.93,3.04,-13.21,-2.47
0.0005433333333333332,0.34,0.05,0.99,1.71,-20.06,1.04
0.0005466666666666665,0.38,0.03,0.92,1.54,-9.05,1.98
0.0005499999999999999,0.32,0.05,0.97,2.18,-14.38,2.99
0.0005533333333333333,0.34,0.05,0.95,1.73,-14.63,3.6
0.0005566666666666667,0.35,0.05,0.93,2.31,-14.85,4.64
0.0005600000000000001,0.35,0.05,0.95,1.91,-15.68,4.53
0.0005633333333333334,0.37,0.05,0.93,2.4,-15.66,3.79
0.0005666666666666668,0.39,0.03,0.88,3.62,-9.24,1.37
0.0005700000000000002,0.4,0.03,0.9,3.91,-4.4,-1.5
0.0005733333333333336,0.38,0.05,0.91,4.85,-7.31,-2.14
0.000576666666666667,0.43,0.07,0.89,4.85,4.2,-2.76
0.0005800000000000003,0.38,0.07,0.95,4.38,3.76,-1.02
0.0005833333333333337,0.35,0.09,0.98,3.62,-1.53,1.79
0.0005866666666666671,0.36,0.07,0.95,2.95,0.58,1.85
0.0005900000000000005,0.34,0.05,0.95,5.42,-4.35,2.46
0.0005933333333333338,0.33,0.05,0.94,7.95,-3.88,1.08
0.0005966666666666672,0.3,0.03,0.97,8.9,-10.78,1.65
0.0006000000000000006,0.37,0.05,0.94,7.57,-8.0,2.35
0.000603333333333334,0.38,0.06,0.95,8.72,-7.98,3.51
0.0006066666666666674,0.35,0.06,0.97,9.71,-7.56,3.5
0.0006100000000000007,0.37,0.08,0.99,8.37,-11.11,5.83
0.0006133333333333341,0.36,0.09,1.0,5.57,-13.83,7.6
0.0006166666666666675,0.37,0.08,0.98,3.73,-9.57,7.24
0.0006200000000000009,0.36,0.07,0.97,3.62,-12.24,7.59
0.0006233333333333342,0.36,0.07,0.98,1.98,-12.21,8.0
0.0006266666666666676,0.37,0.07,0.96,1.28,-9.57,8.61
0.000630000000000001,0.34,0.07,0.96,1.65,-9.27,7.79
0.0006333333333333344,0.36,0.07,0.99,-2.52,-6.0,7.91
0.0006366666666666678,0.37,0.07,0.96,-1.69,-12.08,10.4
0.0006400000000000011,0.38,0.06,0.97,-2.5,-4.89,6.79
0.0006433333333333345,0.39,0.04,0.91,-1.86,4.67,5.16
0.0006466666666666679,0.32,0.04,0.95,-0.26,-11.89,8.12
0.0006500000000000013,0.41,0.02,0.91,0.29,-3.76,8.46
0.0006533333333333346,0.31,-0.01,0.9,8.87,-13.24,10.98
0.000656666666666668,0.3,-0.03,0.89,20.75,-38.85,20.14
0.0006600000000000014,0.31,0.0,0.9,30.12,-56.5,26.85
0.0006633333333333348,0.37,0.04,0.91,33.86,-58.4,27.62
0.0006666666666666682,0.39,0.08,0.93,31.82,-56.44,19.86
0.0006700000000000015,0.43,0.1,0.96,24.56,-48.75,14.05
0.0006733333333333349,0.51,0.12,0.95,14.23,-32.09,6.41
0.0006766666666666683,0.57,0.13,0.9,8.6,-10.78,1.51
0.0006800000000000017,0.58,0.13,0.91,4.98,6.02,-0.63
0.000683333333333335,0.55,0.15,0.96,-0.31,10.84,1.77
0.0006866666666666684,0.51,0.15,1.01,-5.59,14.0,4.85
0.0006900000000000018,0.48,0.14,0.97,-8.99,18.35,3.69
0.0006933333333333352,0.47,0.12,0.97,-6.9,13.95,4.24
0.0006966666666666686,0.52,0.1,0.94,-11.4,33.5,0.96
0.0007000000000000019,0.39,0.09,0.99,-12.09,18.84,0.73
0.0007033333333333353,0.43,0.09,0.97,-12.84,18.72,-0.41
0.0007066666666666687,0.46,0.07,0.94,-12.64,23.02,-0.05
0.0007100000000000021,0.42,0.07,0.98,-10.79,13.42,3.66
0.0007133333333333355,0.43,0.08,0.97,-11.73,12.76,3.68
0.0007166666666666688,0.43,0.06,0.98,-12.85,17.22,3.62
0.0007200000000000022,0.36,0.06,0.98,-10.24,5.82,5.05
0.0007233333333333356,0.39,0.06,0.98,-11.92,3.47,5.02
0.000726666666666669,0.4,0.05,0.96,-11.95,-0.34,7.44
0.0007300000000000023,0.42,0.05,0.97,-18.72,7.76,4.38
0.0007333333333333357,0.41,0.06,0.98,-23.5,8.03,2.38
0.0007366666666666691,0.4,0.03,0.94,-25.07,6.9,3.42
0.0007400000000000025,0.45,0.02,0.9,-24.92,20.75,0.52
0.0007433333333333359,0.42,0.03,0.92,-24.46,24.09,0.81
0.0007466666666666692,0.37,0.01,0.93,-23.31,18.9,0.99
0.0007500000000000026,0.38,0.01,0.92,-21.22,15.71,2.55
0.000753333333333336,0.37,0.01,0.93,-19.3,8.95,4.03
0.0007566666666666694,0.37,0.0,0.9,-17.37,10.43,3.63
0.0007600000000000028,0.38,-0.01,0.91,-15.47,10.02,3.45
0.0007633333333333361,0.38,-0.0,0.92,-15.19,7.27,3.3
0.0007666666666666695,0.39,-0.01,0.92,-13.92,10.15,2.6
0.0007700000000000029,0.35,-0.01,0.94,-13.27,4.78,4.52
0.0007733333333333363,0.37,-0.02,0.93,-11.04,-0.5,7.13
0.0007766666666666696,0.37,-0.02,0.92,-9.69,2.84,6.89
0.000780000000000003,0.38,-0.02,0.92,-9.74,2.93,5.05
0.0007833333333333364,0.41,-0.0,0.91,-9.59,9.79,3.91
0.0007866666666666698,0.36,-0.0,0.95,-10.58,5.11,2.92
0.0007900000000000032,0.39,0.0,0.93,-11.01,9.39,1.68
0.0007933333333333365,0.41,0.0,0.93,-9.91,12.72,3.31
0.0007966666666666699,0.37,-0.01,0.94,-9.66,11.6,4.43
0.0008000000000000033,0.36,-0.02,0.94,-7.88,6.17,6.2
0.0008033333333333367,0.38,-0.02,0.92,-7.33,13.04,5.02
0.00080666666666667,0.37,-0.04,0.93,-6.21,15.6,4.24
0.0008100000000000034,0.35,-0.03,0.94,-5.02,13.88,3.3
0.0008133333333333368,0.36,-0.03,0.95,-5.97,16.78,3.54
0.0008166666666666702,0.34,-0.02,0.96,-5.73,16.23,3.71
0.0008200000000000036,0.36,-0.01,0.99,-8.56,21.95,2.32
0.0008233333333333369,0.35,-0.04,0.96,-7.6,20.63,4.15
0.0008266666666666703,0.32,-0.06,0.94,-6.31,23.4,0.43
0.0008300000000000037,0.31,-0.06,0.98,-7.68,20.99,-0.03
0.0008333333333333371,0.3,-0.04,0.98,-5.85,12.6,1.4
0.0008366666666666705,0.32,-0.06,0.94,-4.99,16.69,1.68
0.0008400000000000038,0.29,-0.06,0.95,-4.58,10.17,4.84
0.0008433333333333372,0.34,-0.03,0.93,-3.62,13.71,6.66
0.0008466666666666706,0.34,-0.05,0.93,-3.19,17.11,6.46
0.000850000000000004,0.25,-0.08,0.94,0.75,10.72,4.69
0.0008533333333333373,0.29,-0.08,0.92,2.75,6.99,3.79
0.0008566666666666707,0.31,-0.05,0.96,2.63,8.92,2.75
0.0008600000000000041,0.31,-0.01,1.03,-1.07,9.73,5.68
0.0008633333333333375,0.29,-0.03,1.0,-1.36,6.73,7.82
0.0008666666666666709,0.25,-0.06,1.02,-0.98,1.37,6.75
0.0008700000000000042,0.27,-0.05,1.0,-2.96,6.66,2.03
0.0008733333333333376,0.26,-0.04,1.02,-6.03,7.62,1.68
0.000876666666666671,0.27,-0.02,1.03,-9.53,12.15,0.9
0.0008800000000000044,0.27,-0.02,1.05,-10.93,10.26,0.98
0.0008833333333333377,0.27,-0.05,1.02,-11.19,12.15,-1.19
0.0008866666666666711,0.24,-0.06,1.02,-10.6,6.53,-0.35
0.0008900000000000045,0.23,-0.05,1.02,-9.45,4.14,0.58
0.0008933333333333379,0.25,-0.05,1.02,-10.26,3.4,1.62
0.0008966666666666713,0.22,-0.06,1.03,-10.64,-4.17,2.75
0.0009000000000000046,0.25,-0.06,0.99,-10.58,-3.13,1.65
0.000903333333333338,0.28,-0.06,0.98,-8.73,-4.06,4.69
0.0009066666666666714,0.24,-0.08,0.97,-7.24,-6.2,5.13
0.0009100000000000048,0.2,-0.08,0.99,-7.4,-16.92,5.86
0.0009133333333333382,0.25,-0.09,0.93,-4.63,-23.45,5.88
0.0009166666666666715,0.29,-0.12,0.89,-1.15,-16.58,2.63
0.0009200000000000049,0.31,-0.12,0.87,4.58,-11.4,3.77
0.0009233333333333383,0.27,-0.11,0.89,13.47,-22.46,8.82
0.0009266666666666717,0.23,-0.09,0.97,15.01,-27.18,9.88
0.000930000000000005,0.26,-0.08,0.95,18.09,-34.64,12.35
0.0009333333333333384,0.3,-0.07,0.96,16.58,-27.02,8.21
0.0009366666666666718,0.31,-0.07,0.97,13.16,-19.83,2.9
0.0009400000000000052,0.35,-0.04,0.97,10.35,-12.31,-0.96
0.0009433333333333386,0.35,-0.03,0.96,8.44,-4.11,-2.69
0.0009466666666666719,0.37,-0.0,1.04,6.38,-4.43,-3.85
0.0009500000000000053,0.42,-0.04,1.0,-4.38,20.05,-8.47
0.0009533333333333387,0.26,-0.06,0.96,2.81,-4.93,-4.14
0.0009566666666666721,0.35,-0.03,0.99,0.17,5.83,-3.94
0.0009600000000000054,0.3,-0.04,1.04,-0.14,-7.76,-1.57
0.0009633333333333388,0.34,-0.07,0.95,0.11,-0.92,-6.73
0.0009666666666666722,0.39,-0.04,0.96,-1.28,7.39,-7.95
0.0009700000000000056,0.37,-0.01,1.03,-3.08,3.51,-4.23
0.000973333333333339,0.33,-0.05,0.95,-2.96,3.66,-6.78
0.0009766666666666723,0.34,-0.02,0.97,0.47,-8.43,-1.8
0.0009800000000000056,0.47,0.0,1.07,-11.25,14.09,-4.11
0.0009833333333333389,0.3,-0.07,0.96,-9.37,6.38,-5.47
