time,acce_x,acce_y,acce_z,gyro_x,gyro_y,gyro_z
0.0,0.18,0.27,1.01,-12.58,-2.82,5.07
3.3333333333333333e-06,0.21,0.27,1.0,-12.37,1.77,6.73
6.666666666666667e-06,0.15,0.29,1.08,-17.08,-0.66,8.23
9.999999999999999e-06,0.15,0.28,1.05,-20.12,0.02,7.05
1.3333333333333333e-05,0.16,0.25,0.97,-18.21,4.43,5.73
1.6666666666666667e-05,0.15,0.22,0.92,-13.04,3.42,6.29
2e-05,0.19,0.23,0.97,-13.33,9.56,8.84
2.3333333333333336e-05,0.11,0.24,1.0,-12.67,2.08,11.19
2.666666666666667e-05,0.15,0.25,0.97,-12.4,2.92,13.74
3.0000000000000004e-05,0.13,0.24,0.95,-11.08,2.29,13.8
3.3333333333333335e-05,0.09,0.23,0.97,-9.51,-0.14,13.34
3.6666666666666666e-05,0.1,0.22,0.96,-8.87,3.21,10.73
3.9999999999999996e-05,0.11,0.21,0.93,-4.27,3.07,9.25
4.333333333333333e-05,0.13,0.2,0.92,0.61,2.5,11.36
4.666666666666666e-05,0.11,0.2,0.93,4.92,1.34,11.62
4.999999999999999e-05,0.03,0.21,1.0,7.95,-10.69,9.33
5.333333333333332e-05,0.07,0.22,1.0,7.88,-16.9,8.7
5.666666666666665e-05,0.14,0.21,0.98,4.0,-12.21,7.66
5.999999999999998e-05,0.11,0.22,1.0,0.78,-17.19,8.08
6.333333333333332e-05,0.17,0.23,0.98,1.36,-15.37,8.99
6.666666666666666e-05,0.2,0.22,0.96,3.53,-11.6,10.17
7e-05,0.19,0.21,0.99,-0.5,-0.56,7.42
7.333333333333333e-05,0.2,0.23,1.09,-9.47,4.03,8.26
7.666666666666667e-05,0.13,0.22,1.05,-13.31,1.45,7.51
8e-05,0.11,0.19,1.0,-11.59,-6.43,7.71
8.333333333333334e-05,0.14,0.19,0.96,-7.79,-9.57,7.56
8.666666666666668e-05,0.15,0.2,1.0,-8.63,-6.75,5.68
9.000000000000002e-05,0.15,0.21,1.0,-10.43,-9.31,5.98
9.333333333333336e-05,0.2,0.22,0.97,-10.21,-4.11,7.07
9.66666666666667e-05,0.17,0.21,0.99,-8.7,-5.76,9.13
0.00010000000000000003,0.15,0.19,0.98,-7.18,-8.84,9.31
0.00010333333333333337,0.13,0.2,0.97,-7.56,-11.44,8.35
0.00010666666666666671,0.11,0.2,0.95,-3.28,-16.89,7.31
0.00011000000000000004,0.13,0.18,0.9,1.47,-18.99,5.86
0.00011333333333333338,0.15,0.2,0.91,3.22,-18.76,4.27
0.00011666666666666672,0.18,0.22,0.96,0.21,-20.18,4.56
0.00012000000000000006,0.23,0.23,0.94,-0.92,-16.09,7.31
0.0001233333333333334,0.24,0.22,0.97,-3.63,-8.69,8.0
0.00012666666666666672,0.22,0.22,1.01,-6.35,-4.05,8.32
0.00013000000000000004,0.2,0.2,0.99,-6.95,-2.9,8.47
0.00013333333333333337,0.18,0.19,1.0,-6.7,-2.27,6.7
0.0001366666666666667,0.18,0.18,1.01,-6.11,-1.98,5.73
0.00014000000000000001,0.17,0.19,1.04,-6.89,-3.68,5.51
0.00014333333333333334,0.17,0.18,1.05,-7.39,-5.25,4.9
0.00014666666666666666,0.18,0.19,1.07,-9.92,-8.56,4.9
0.00015,0.2,0.2,1.08,-12.44,-11.34,5.83
0.0001533333333333333,0.2,0.17,1.02,-12.72,-10.06,5.5
0.00015666666666666663,0.24,0.17,0.99,-13.11,-3.48,5.47
0.00015999999999999996,0.23,0.16,0.98,-12.15,0.0,6.44
0.00016333333333333328,0.24,0.17,1.0,-14.75,7.22,5.97
0.0001666666666666666,0.19,0.18,1.02,-14.82,4.0,7.22
0.00016999999999999993,0.18,0.16,1.01,-15.15,-4.17,8.49
0.00017333333333333325,0.12,0.16,1.03,-16.31,-16.82,8.93
0.00017666666666666658,0.17,0.15,0.99,-17.5,-18.75,7.85
0.0001799999999999999,0.22,0.14,0.97,-16.38,-14.64,6.85
0.00018333333333333323,0.22,0.14,0.96,-13.07,-14.72,6.9
0.00018666666666666655,0.21,0.13,0.97,-11.51,-12.73,6.87
0.00018999999999999987,0.24,0.12,0.93,-7.6,-5.98,6.41
0.0001933333333333332,0.23,0.13,0.94,-5.33,-4.44,6.15
0.00019666666666666652,0.18,0.14,1.0,-5.51,-9.59,5.5
0.00019999999999999985,0.21,0.12,0.96,-4.73,-9.6,4.96
0.00020333333333333317,0.22,0.12,0.98,-5.69,-6.67,2.79
0.0002066666666666665,0.26,0.14,0.98,-7.39,-2.96,2.92
0.00020999999999999982,0.26,0.13,0.97,-6.08,-0.23,4.38
0.00021333333333333314,0.19,0.11,0.95,-1.18,-7.95,6.12
0.00021666666666666647,0.16,0.09,0.92,6.85,-17.59,5.77
0.0002199999999999998,0.22,0.09,0.9,12.05,-16.52,4.38
0.00022333333333333311,0.29,0.13,0.91,16.44,-15.56,7.44
0.00022666666666666644,0.33,0.17,0.89,17.28,-7.74,3.73
0.00022999999999999976,0.36,0.17,0.92,17.21,7.57,6.03
0.0002333333333333331,0.28,0.15,0.99,11.66,9.69,7.47
0.0002366666666666664,0.25,0.12,1.06,1.82,12.18,6.18
0.00023999999999999974,0.17,0.14,1.1,-6.64,-2.5,5.65
0.00024333333333333306,0.25,0.06,0.96,-4.53,-6.02,6.67
0.0002466666666666664,0.24,0.11,0.95,-0.41,-0.96,1.98
0.00024999999999999973,0.24,0.12,1.05,-2.41,-2.98,0.92
0.00025333333333333306,0.28,0.1,1.02,-3.42,-1.18,2.58
0.0002566666666666664,0.28,0.12,1.0,-4.81,3.71,-0.82
0.0002599999999999997,0.28,0.12,0.97,-2.08,8.24,-2.02
0.00026333333333333303,0.29,0.14,1.0,-0.46,14.12,0.08
0.00026666666666666635,0.3,0.16,1.03,-3.62,16.9,1.3
0.0002699999999999997,0.22,0.13,1.04,-3.02,8.05,3.5
0.000273333333333333,0.3,0.07,0.93,6.79,21.04,3.79
0.0002766666666666663,0.21,0.13,1.04,0.61,8.34,-0.44
0.00027999999999999965,0.25,0.16,1.03,-8.31,15.77,-4.64
0.000283333333333333,0.24,0.19,1.11,-16.63,14.92,-4.37
0.0002866666666666663,0.23,0.14,1.11,-19.18,4.72,2.0
0.0002899999999999996,0.22,0.14,1.04,-24.52,6.26,1.63
0.00029333333333333295,0.22,0.14,1.02,-20.46,5.1,4.23
0.00029666666666666627,0.26,0.18,0.99,-22.46,12.11,2.34
0.0002999999999999996,0.29,0.12,0.98,-22.35,16.63,3.6
0.0003033333333333329,0.21,0.08,0.97,-15.91,14.84,5.39
0.00030666666666666624,0.21,0.11,0.99,-18.2,12.14,4.96
0.00030999999999999957,0.15,0.1,0.99,-16.15,2.2,4.92
0.0003133333333333329,0.18,0.09,0.98,-14.4,4.43,3.92
0.0003166666666666662,0.15,0.11,0.96,-12.29,-1.66,3.63
0.00031999999999999954,0.18,0.06,0.95,-7.1,-2.5,1.44
0.00032333333333333286,0.2,0.03,0.93,0.98,2.31,2.27
0.0003266666666666662,0.25,0.07,0.89,1.65,17.02,-4.34
0.0003299999999999995,0.21,0.14,0.95,11.34,17.3,0.6
0.00033333333333333283,0.16,0.13,1.0,2.85,18.47,-0.21
0.00033666666666666616,0.07,0.06,1.0,6.46,4.89,-2.24
0.0003399999999999995,0.08,0.08,1.02,11.11,-8.5,1.27
0.0003433333333333328,0.12,0.11,1.03,1.44,-20.17,-0.27
0.00034666666666666613,0.25,0.13,0.97,-1.86,-10.06,-0.87
0.00034999999999999945,0.26,0.14,0.98,-5.82,-4.08,1.04
0.0003533333333333328,0.2,0.13,1.05,-9.83,-5.48,3.11
0.0003566666666666661,0.19,0.09,0.97,-6.96,-1.65,2.14
0.0003599999999999994,0.16,0.06,0.95,-4.87,-1.18,0.0
0.00036333333333333275,0.19,0.07,0.96,-3.15,-2.47,0.47
0.0003666666666666661,0.23,0.09,0.94,-0.14,5.37,0.75
0.0003699999999999994,0.2,0.09,0.98,0.67,10.7,-0.47
0.0003733333333333327,0.15,0.09,1.04,0.92,6.02,-2.46
0.00037666666666666605,0.12,0.12,1.06,1.56,0.87,-3.05
0.00037999999999999937,0.16,0.1,1.02,2.85,-11.59,-1.02
0.0003833333333333327,0.24,0.07,0.97,15.88,-2.44,-1.42
0.000386666666666666,0.27,0.12,0.96,7.86,4.21,-2.7
0.00038999999999999934,0.26,0.09,0.94,15.71,10.66,2.24
0.00039333333333333267,0.26,0.15,0.98,13.71,14.21,3.65
0.000396666666666666,0.18,0.12,1.08,21.37,5.33,7.62
0.0003999999999999993,0.16,0.16,1.07,8.08,-1.1,4.6
0.00040333333333333264,0.2,0.11,1.03,3.66,-1.19,-0.17
0.00040666666666666596,0.25,0.13,0.96,4.87,3.24,0.76
0.0004099999999999993,0.2,0.16,0.93,9.62,11.27,-3.4
0.0004133333333333326,0.27,0.1,0.87,17.22,20.66,0.58
0.00041666666666666593,0.28,0.1,0.84,27.11,35.48,7.1
0.00041999999999999926,0.24,0.12,0.91,28.34,46.43,8.38
0.0004233333333333326,0.09,0.19,1.13,20.08,26.09,9.98
0.0004266666666666659,0.11,0.13,1.13,11.18,16.72,7.42
0.00042999999999999923,0.13,0.17,1.12,0.55,4.67,4.78
0.00043333333333333255,0.19,0.15,1.01,0.73,5.63,4.93
0.0004366666666666659,0.21,0.08,0.91,8.17,9.05,7.15
0.0004399999999999992,0.21,0.14,0.97,10.7,11.88,8.32
0.0004433333333333325,0.2,0.09,0.91,21.48,15.51,11.57
0.00044666666666666585,0.17,0.17,1.0,11.19,22.4,6.18
0.0004499999999999992,0.1,0.19,1.11,-1.97,4.08,6.31
0.0004533333333333325,0.08,0.15,1.04,-3.69,-6.15,6.23
0.0004566666666666658,0.13,0.12,0.96,-0.05,-7.34,4.53
0.00045999999999999915,0.16,0.08,0.92,5.57,-3.24,1.3
0.00046333333333333247,0.12,0.06,0.91,12.63,-4.26,-3.16
0.0004666666666666658,0.15,0.0,0.86,22.55,-13.68,-5.92
0.0004699999999999991,0.19,0.04,0.87,27.82,-2.95,-4.75
0.00047333333333333244,0.24,0.19,0.93,21.19,-5.07,8.09
0.00047666666666666577,0.08,0.27,1.17,4.92,-25.66,14.02
0.0004799999999999991,0.06,0.25,1.13,-3.1,-35.66,12.27
0.0004833333333333324,0.02,0.21,1.02,-2.23,-48.11,5.18
0.00048666666666666574,0.19,0.17,0.92,2.84,-23.54,-2.76
0.0004899999999999991,0.28,0.15,0.92,9.85,-9.47,-2.82
0.0004933333333333325,0.23,0.13,0.97,17.28,-6.92,-1.19
0.0004966666666666659,0.19,0.17,1.03,18.47,-8.37,-0.84
0.0004999999999999993,0.19,0.2,1.01,18.49,-9.76,-0.23
0.0005033333333333326,0.21,0.2,1.0,18.76,-3.13,-0.64
0.000506666666666666,0.22,0.23,1.03,13.97,0.76,0.47
0.0005099999999999994,0.19,0.21,1.02,13.57,5.98,-2.23
0.0005133333333333328,0.19,0.22,1.04,10.15,9.45,-4.2
0.0005166666666666661,0.17,0.21,1.04,8.26,7.42,-5.76
0.0005199999999999995,0.19,0.23,1.05,3.22,11.02,-6.29
0.0005233333333333329,0.15,0.23,1.04,4.55,-0.75,-3.01
0.0005266666666666663,0.2,0.23,1.05,1.71,-3.47,0.89
0.0005299999999999997,0.18,0.24,1.05,-2.67,-9.54,3.42
0.000533333333333333,0.18,0.22,1.04,-5.27,-15.02,3.24
0.0005366666666666664,0.2,0.22,1.01,-10.02,-10.98,-0.29
0.0005399999999999998,0.23,0.22,1.0,-12.7,-5.65,-2.29
0.0005433333333333332,0.24,0.22,1.02,-14.9,-4.2,-1.36
0.0005466666666666665,0.2,0.21,1.0,-17.86,-6.38,-0.05
0.0005499999999999999,0.19,0.19,0.97,-18.92,-5.86,-0.73
0.0005533333333333333,0.21,0.17,0.92,-16.75,-0.26,-3.74
0.0005566666666666667,0.21,0.15,0.9,-13.59,2.64,-4.61
0.0005600000000000001,0.17,0.16,0.92,-10.6,2.69,-4.03
0.0005633333333333334,0.18,0.19,0.97,-11.4,1.73,-3.51
0.0005666666666666668,0.18,0.2,1.02,-17.5,-3.63,-1.39
0.0005700000000000002,0.21,0.17,0.97,-17.48,-5.13,-0.35
0.0005733333333333336,0.2,0.15,0.95,-15.62,-4.14,-1.85
0.000576666666666667,0.18,0.13,0.92,-10.4,-6.55,-2.03
0.0005800000000000003,0.23,0.12,0.9,-5.94,-0.46,-3.21
0.0005833333333333337,0.2,0.11,0.9,-0.93,1.5,-4.26
0.0005866666666666671,0.23,0.13,0.93,1.6,3.59,-3.57
0.0005900000000000005,0.22,0.15,0.95,3.15,1.76,-1.16
0.0005933333333333338,0.21,0.16,1.0,1.33,-3.66,0.21
0.0005966666666666672,0.17,0.17,1.02,-2.11,-11.21,1.13
0.0006000000000000006,0.23,0.17,0.98,-2.63,-10.46,2.4
0.000603333333333334,0.29,0.16,0.95,-4.29,-0.85,2.52
0.0006066666666666674,0.25,0.13,0.94,-1.11,-2.67,3.88
0.0006100000000000007,0.25,0.11,0.91,1.1,8.31,1.82
0.0006133333333333341,0.2,0.12,0.92,6.02,2.93,2.43
0.0006166666666666675,0.23,0.13,0.92,8.73,5.48,1.79
0.0006200000000000009,0.21,0.14,0.91,12.78,6.38,1.48
0.0006233333333333342,0.17,0.15,0.95,14.9,6.89,0.49
0.0006266666666666676,0.14,0.19,1.04,11.89,-4.81,0.12
0.000630000000000001,0.14,0.22,1.08,8.2,-14.18,1.07
0.0006333333333333344,0.24,0.2,1.0,5.77,-15.88,4.49
0.0006366666666666678,0.27,0.18,0.97,4.79,-4.55,5.02
0.0006400000000000011,0.26,0.17,0.98,6.82,0.05,6.63
0.0006433333333333345,0.26,0.16,0.96,11.24,2.9,8.9
0.0006466666666666679,0.25,0.16,0.95,11.85,13.25,6.78
0.0006500000000000013,0.2,0.17,1.0,11.21,6.63,5.65
0.0006533333333333346,0.15,0.19,1.04,9.31,4.67,3.74
0.000656666666666668,0.18,0.21,1.05,4.26,4.7,1.88
0.0006600000000000014,0.18,0.21,1.04,1.89,1.5,1.82
0.0006633333333333348,0.23,0.2,1.02,2.14,1.47,3.57
0.0006666666666666682,0.21,0.21,1.03,-0.08,0.24,4.38
0.0006700000000000015,0.22,0.19,1.0,-0.29,2.76,3.85
0.0006733333333333349,0.19,0.19,0.95,1.68,6.37,1.19
0.0006766666666666683,0.17,0.18,0.95,5.21,10.32,-1.45
0.0006800000000000017,0.15,0.2,1.01,4.84,6.18,-4.14
0.000683333333333335,0.17,0.23,1.05,2.31,-1.68,-4.09
0.0006866666666666684,0.24,0.24,0.99,-0.21,4.12,-3.59
0.0006900000000000018,0.23,0.22,1.0,-0.66,3.65,-2.11
0.0006933333333333352,0.2,0.22,1.02,-1.71,-1.53,-1.05
0.0006966666666666686,0.19,0.2,0.98,-2.38,1.34,-2.66
0.0007000000000000019,0.2,0.2,0.97,-2.56,4.29,-4.31
0.0007033333333333353,0.18,0.2,1.0,-3.19,2.21,-3.94
0.0007066666666666687,0.2,0.22,1.02,-4.93,-1.16,-3.94
0.0007100000000000021,0.21,0.22,1.03,-9.04,-3.04,-3.53
0.0007133333333333355,0.22,0.21,1.02,-10.81,-5.95,-1.86
0.0007166666666666688,0.26,0.21,1.01,-14.49,-1.08,0.96
0.0007200000000000022,0.22,0.18,0.99,-13.25,-0.34,1.34
0.0007233333333333356,0.23,0.18,0.98,-12.47,-0.73,2.06
0.000726666666666669,0.2,0.16,0.97,-10.95,-1.91,1.42
0.0007300000000000023,0.19,0.15,0.98,-8.72,-5.86,1.69
0.0007333333333333357,0.2,0.15,0.98,-8.31,-7.01,0.0
0.0007366666666666691,0.23,0.14,0.95,-8.09,-1.53,-1.53
0.0007400000000000025,0.25,0.14,0.94,-5.62,3.65,-0.76
0.0007433333333333359,0.22,0.15,0.96,-4.26,1.21,0.73
0.0007466666666666692,0.2,0.16,1.0,-5.44,0.08,2.35
0.0007500000000000026,0.19,0.17,1.0,-7.92,-1.19,1.15
0.000753333333333336,0.16,0.15,0.99,-9.4,-2.34,0.53
0.0007566666666666694,0.19,0.15,0.98,-8.89,-2.17,0.99
0.0007600000000000028,0.2,0.13,0.96,-6.61,-2.72,1.53
0.0007633333333333361,0.19,0.14,0.94,-4.82,-3.65,2.47
0.0007666666666666695,0.19,0.12,0.96,-1.39,-3.82,2.9
0.0007700000000000029,0.18,0.13,0.97,0.52,-6.35,1.66
0.0007733333333333363,0.19,0.13,0.95,0.82,-3.91,-0.93
0.0007766666666666696,0.22,0.14,0.94,3.19,2.43,-3.25
0.000780000000000003,0.22,0.14,0.96,5.47,3.48,-4.0
0.0007833333333333364,0.22,0.12,0.97,11.11,-0.21,-1.44
0.0007866666666666698,0.23,0.18,1.04,3.18,-1.48,-1.5
0.0007900000000000032,0.22,0.18,0.99,2.2,-3.8,1.24
0.0007933333333333365,0.24,0.17,0.99,2.56,1.47,-0.08
0.0007966666666666699,0.23,0.17,1.0,2.72,0.55,2.46
0.0008000000000000033,0.22,0.19,0.97,2.93,-0.37,3.77
0.0008033333333333367,0.21,0.15,1.0,4.06,-1.11,2.92
0.00080666666666667,0.17,0.16,0.99,5.21,-5.54,3.24
0.0008100000000000034,0.19,0.15,0.98,14.44,-4.14,2.29
0.0008133333333333368,0.23,0.2,1.02,2.69,-0.64,0.02
0.0008166666666666702,0.22,0.18,1.0,-0.08,-0.43,1.16
0.0008200000000000036,0.23,0.16,0.98,-0.35,1.98,-0.15
0.0008233333333333369,0.23,0.16,0.98,0.08,3.45,1.1
0.0008266666666666703,0.23,0.16,0.97,-0.34,4.99,3.85
0.0008300000000000037,0.25,0.16,0.94,2.92,8.38,3.73
0.0008333333333333371,0.2,0.15,0.96,2.64,8.05,3.27
0.0008366666666666705,0.17,0.17,1.0,1.86,6.18,1.85
0.0008400000000000038,0.18,0.17,1.0,1.27,0.11,2.4
0.0008433333333333372,0.22,0.18,1.0,0.14,0.15,3.51
0.0008466666666666706,0.21,0.17,1.0,0.66,-1.42,3.86
0.000850000000000004,0.19,0.17,0.99,1.37,-3.22,3.59
0.0008533333333333373,0.2,0.15,0.97,4.53,-2.43,3.07
0.0008566666666666707,0.22,0.18,1.01,-0.02,3.11,1.02
0.0008600000000000041,0.2,0.17,0.99,0.79,2.11,1.4
0.0008633333333333375,0.2,0.17,0.96,2.24,4.95,0.85
0.0008666666666666709,0.18,0.16,1.0,6.55,1.36,2.35
0.0008700000000000042,0.19,0.22,1.0,2.4,-2.64,1.48
0.0008733333333333376,0.2,0.17,1.0,0.37,0.69,-2.4
0.000876666666666671,0.2,0.18,1.0,1.95,-3.54,-0.27
0.0008800000000000044,0.22,0.19,1.0,1.56,-3.42,2.15
0.0008833333333333377,0.21,0.19,0.99,2.58,-6.5,5.31
0.0008866666666666711,0.22,0.14,0.95,6.26,-2.53,7.08
0.0008900000000000045,0.23,0.18,0.98,3.6,1.04,7.04
0.0008933333333333379,0.21,0.18,0.97,11.08,-4.08,15.62
0.0008966666666666713,0.18,0.24,0.99,9.92,-2.41,16.2
0.0009000000000000046,0.18,0.21,1.01,8.5,-1.63,15.45
0.000903333333333338,0.13,0.17,0.97,15.4,-10.75,19.77
0.0009066666666666714,0.16,0.21,1.05,7.48,-0.78,10.02
0.0009100000000000048,0.17,0.23,1.07,-4.23,-4.06,5.51
0.0009133333333333382,0.22,0.21,1.02,-8.63,0.0,2.23
0.0009166666666666715,0.22,0.2,1.0,-8.11,7.62,0.76
0.0009200000000000049,0.23,0.18,0.99,-5.91,-0.34,6.27
0.0009233333333333383,0.22,0.18,0.99,-5.88,0.4,5.82
0.0009266666666666717,0.14,0.18,1.0,-6.76,-5.65,0.43
0.000930000000000005,0.18,0.18,0.98,-6.63,-9.21,-4.21
0.0009333333333333384,0.23,0.17,0.98,-5.68,-8.15,-4.81
0.0009366666666666718,0.25,0.17,0.96,-4.61,-11.07,-3.13
0.0009400000000000052,0.27,0.17,0.97,-2.79,-15.22,2.82
0.0009433333333333386,0.33,0.16,0.92,-4.49,-1.76,-2.98
0.0009466666666666719,0.26,0.16,0.96,-4.35,-1.45,-2.95
0.0009500000000000053,0.27,0.15,0.95,-1.94,0.11,-3.85
0.0009533333333333387,0.29,0.15,0.93,-0.26,3.94,-2.81
0.0009566666666666721,0.29,0.15,0.95,0.35,6.79,-1.54
0.0009600000000000054,0.24,0.16,0.98,0.63,3.4,-0.66
0.0009633333333333388,0.2,0.17,0.99,-0.72,0.27,-3.28
0.0009666666666666722,0.25,0.16,0.96,0.38,4.05,-6.5
0.0009700000000000056,0.3,0.18,0.96,2.02,8.96,-4.37
0.000973333333333339,0.28,0.2,0.98,2.38,12.27,-0.06
0.0009766666666666723,0.26,0.19,0.98,1.18,11.25,1.79
0.0009800000000000056,0.22,0.18,0.97,1.54,9.73,2.75
0.0009833333333333389,0.23,0.17,0.97,1.89,9.25,1.45
0.0009866666666666721,0.22,0.15,0.93,6.66,12.12,1.24
