time,acce_x,acce_y,acce_z,gyro_x,gyro_y,gyro_z
0.0,0.05,0.33,1.05,-21.28,20.02,-12.73
3.3333333333333333e-06,0.03,0.32,1.04,-20.5,8.76,-12.23
6.666666666666667e-06,0.09,0.3,1.01,-18.43,-3.83,-10.92
9.999999999999999e-06,0.13,0.29,0.96,-15.54,-8.17,-6.95
1.3333333333333333e-05,0.17,0.31,0.95,-13.89,-4.58,-3.13
1.6666666666666667e-05,0.18,0.3,0.94,-15.85,5.62,-1.82
2e-05,0.13,0.29,0.94,-16.56,6.47,-0.98
2.3333333333333336e-05,0.07,0.28,0.96,-16.37,2.93,-1.63
2.666666666666667e-05,0.03,0.27,0.97,-14.03,-8.14,-2.7
3.0000000000000004e-05,0.08,0.26,0.94,-10.89,-8.95,-4.61
3.3333333333333335e-05,0.1,0.26,0.93,-8.89,-11.83,-4.0
3.6666666666666666e-05,0.12,0.27,0.92,-5.65,-9.98,-4.85
3.9999999999999996e-05,0.13,0.26,0.96,-4.63,-8.76,-3.89
4.333333333333333e-05,0.15,0.26,0.94,-2.38,-6.75,-1.91
4.666666666666666e-05,0.16,0.25,0.92,0.02,0.37,-0.78
4.999999999999999e-05,0.14,0.27,0.94,2.7,0.58,1.07
5.333333333333332e-05,0.12,0.23,0.94,8.15,-1.21,-2.66
5.666666666666665e-05,0.13,0.24,0.9,12.67,-3.39,0.43
5.999999999999998e-05,0.15,0.23,0.9,16.23,2.99,1.08
6.333333333333332e-05,0.16,0.27,0.93,15.56,12.73,-0.46
6.666666666666666e-05,0.08,0.26,1.0,11.34,8.98,-1.88
7e-05,0.08,0.26,1.01,7.73,0.14,-1.82
7.333333333333333e-05,0.1,0.28,1.04,2.34,-7.69,0.58
7.666666666666667e-05,0.16,0.27,1.0,2.79,-7.07,4.58
8e-05,0.13,0.28,0.98,4.35,-3.82,3.63
8.333333333333334e-05,0.15,0.28,0.98,-1.63,-7.04,4.29
8.666666666666668e-05,0.16,0.28,0.97,-1.69,-3.31,5.54
9.000000000000002e-05,0.17,0.29,0.97,-3.01,5.25,0.99
9.333333333333336e-05,0.17,0.25,0.94,-0.55,2.17,4.76
9.66666666666667e-05,0.14,0.3,0.97,-3.94,-0.69,4.34
0.00010000000000000003,0.11,0.28,1.01,-5.3,-4.38,5.54
0.00010333333333333337,0.13,0.26,1.0,-5.89,-5.39,7.82
0.00010666666666666671,0.16,0.28,0.95,-7.22,-2.58,4.99
0.00011000000000000004,0.15,0.26,0.92,6.66,11.05,1.21
0.00011333333333333338,0.15,0.3,0.96,-5.07,6.03,4.47
0.00011666666666666672,0.17,0.28,0.94,-0.75,4.15,10.58
0.00012000000000000006,0.15,0.29,0.96,-0.85,14.85,3.82
0.0001233333333333334,0.05,0.3,1.04,-6.52,-4.58,5.89
0.00012666666666666672,0.11,0.29,1.03,-8.15,-4.53,4.55
0.00013000000000000004,0.13,0.39,1.03,-8.56,6.18,4.66
0.00013333333333333337,0.19,0.29,0.98,-14.9,18.46,3.28
0.0001366666666666667,0.18,0.29,0.99,-12.75,21.79,6.46
0.00014000000000000001,0.17,0.28,1.02,-14.47,38.7,0.09
0.00014333333333333334,0.11,0.27,1.04,-21.63,27.13,3.28
0.00014666666666666666,0.04,0.26,1.04,-21.07,15.5,3.98
0.00015,0.04,0.26,1.0,-19.56,7.25,1.18
0.0001533333333333333,0.15,0.09,0.95,-19.76,3.05,3.3
0.00015666666666666663,0.12,0.25,1.01,-21.57,3.31,7.34
0.00015999999999999996,0.11,0.24,0.97,-17.62,3.28,8.75
0.00016333333333333328,0.12,0.22,0.92,-11.4,-1.47,16.12
0.0001666666666666666,0.11,0.24,0.91,-13.5,4.21,11.83
0.00016999999999999993,0.04,0.21,0.94,-13.4,2.35,9.63
0.00017333333333333325,0.06,0.12,0.87,-10.9,-0.06,7.88
0.00017666666666666658,0.03,0.25,0.97,-12.53,-7.34,5.66
0.0001799999999999999,0.05,0.19,0.93,-7.79,-14.66,6.56
0.00018333333333333323,0.08,0.21,0.97,-8.2,-13.08,8.79
0.00018666666666666655,0.14,0.19,0.95,-7.76,-3.42,8.44
0.00018999999999999987,0.08,0.17,0.95,-7.3,-2.78,7.08
0.0001933333333333332,0.09,0.16,0.91,-2.06,2.09,4.46
0.00019666666666666652,0.06,0.18,0.96,0.7,-3.62,5.28
0.00019999999999999985,0.09,0.18,0.95,1.94,0.43,6.03
0.00020333333333333317,0.11,0.18,0.95,1.19,4.26,6.79
0.0002066666666666665,0.06,0.18,0.99,1.19,-0.89,5.54
0.00020999999999999982,0.07,0.18,1.0,1.48,-2.11,3.83
0.00021333333333333314,0.08,0.19,0.98,3.24,-4.58,3.8
0.00021666666666666647,0.08,0.19,0.98,3.1,-2.12,2.67
0.0002199999999999998,0.1,0.21,1.01,2.38,-0.27,2.12
0.00022333333333333311,0.11,0.19,1.01,3.97,0.52,2.09
0.00022666666666666644,0.13,0.19,0.97,9.69,-4.69,3.57
0.00022999999999999976,0.14,0.2,0.93,19.76,-8.72,5.59
0.0002333333333333331,0.19,0.27,0.97,13.68,9.33,9.1
0.0002366666666666664,0.15,0.31,1.12,0.67,19.37,12.23
0.00023999999999999974,0.06,0.32,1.2,-8.98,-4.43,14.06
0.00024333333333333306,0.08,0.27,1.05,-9.68,-3.1,9.45
0.0002466666666666664,0.1,0.25,0.99,-8.58,0.89,4.4
0.00024999999999999973,0.13,0.23,1.01,-10.2,0.84,3.18
0.00025333333333333306,0.16,0.23,1.02,-10.93,5.25,5.25
0.0002566666666666664,0.12,0.24,1.04,-12.95,-1.97,6.99
0.0002599999999999997,0.09,0.22,1.01,-14.76,-1.25,5.44
0.00026333333333333303,0.07,0.22,1.01,-16.72,-8.37,5.34
0.00026666666666666635,0.1,0.2,1.01,-18.06,-8.5,4.03
0.0002699999999999997,0.14,0.2,0.97,-17.59,-5.37,4.17
0.000273333333333333,0.14,0.17,0.97,-14.61,-9.95,6.78
0.0002766666666666663,0.16,0.18,0.95,-12.64,-1.08,8.61
0.00027999999999999965,0.13,0.16,0.95,-10.14,1.63,7.5
0.000283333333333333,0.09,0.16,0.95,-9.28,-0.66,4.6
0.0002866666666666663,0.09,0.16,0.96,-6.58,-2.6,5.1
0.0002899999999999996,0.11,0.17,0.96,-4.82,-6.15,8.32
0.00029333333333333295,0.09,0.14,0.97,-3.22,-10.67,9.74
0.00029666666666666627,0.11,0.13,0.95,-0.75,-11.5,8.9
0.0002999999999999996,0.16,0.15,0.95,1.04,-2.24,6.46
0.0003033333333333329,0.14,0.15,1.01,-2.29,-1.62,8.15
0.00030666666666666624,0.15,0.17,1.03,-7.01,-4.11,9.16
0.00030999999999999957,0.16,0.17,1.03,-10.32,0.5,8.52
0.0003133333333333329,0.13,0.14,0.99,-9.18,1.69,7.31
0.0003166666666666662,0.14,0.17,1.02,-11.47,9.28,3.6
0.00031999999999999954,0.1,0.17,1.05,-14.46,4.43,5.45
0.00032333333333333286,0.11,0.18,1.06,-17.33,0.93,6.79
0.0003266666666666662,0.1,0.17,1.04,-15.59,-0.41,7.44
0.0003299999999999995,0.1,0.16,1.03,-15.24,-1.24,6.52
0.00033333333333333283,0.06,0.14,1.01,-12.81,-2.78,4.21
0.00033666666666666616,0.06,0.13,1.02,-12.96,-2.66,0.35
0.0003399999999999995,0.06,0.15,1.03,-12.32,-11.76,-3.68
0.0003433333333333328,0.05,0.13,1.02,-11.37,-12.29,-6.89
0.00034666666666666613,0.12,0.23,1.02,-14.7,-14.56,-3.65
0.00034999999999999945,0.13,0.18,0.99,-17.21,-12.05,0.7
0.0003533333333333328,0.03,0.32,1.09,-15.22,-17.53,3.01
0.0003566666666666661,0.16,0.14,0.95,-14.87,-11.08,2.84
0.0003599999999999994,0.18,0.14,0.95,-13.82,-8.78,0.56
0.00036333333333333275,0.21,0.18,0.93,-12.73,-0.08,2.78
0.0003666666666666661,0.15,0.15,1.0,-15.91,0.37,1.79
0.0003699999999999994,0.12,0.15,1.02,-17.31,-6.14,4.52
0.0003733333333333327,0.17,0.13,1.0,-18.85,-1.5,5.56
0.00037666666666666605,0.14,0.1,0.99,-14.21,-11.04,8.96
0.00037999999999999937,0.15,0.07,0.93,-8.82,-5.4,8.06
0.0003833333333333327,0.16,0.07,0.94,-6.37,0.12,6.26
0.000386666666666666,0.16,0.09,1.0,-8.69,8.05,1.94
0.00038999999999999934,0.12,0.11,1.05,-12.0,6.93,2.56
0.00039333333333333267,0.12,0.11,1.02,-10.99,1.74,4.2
0.000396666666666666,0.1,0.08,1.01,-10.43,-3.25,4.79
0.0003999999999999993,0.12,0.08,1.01,-10.7,-4.64,3.44
0.00040333333333333264,0.16,0.08,1.0,-12.27,1.28,1.47
0.00040666666666666596,0.2,0.07,0.96,-7.56,9.01,2.66
0.0004099999999999993,0.18,0.08,0.97,-4.99,9.42,3.68
0.0004133333333333326,0.14,0.07,1.03,-4.53,8.32,2.9
0.00041666666666666593,0.1,0.1,1.08,-9.21,0.12,3.34
0.00041999999999999926,0.11,0.1,1.07,-12.89,-5.51,0.49
0.0004233333333333326,0.18,0.07,0.97,-9.66,-0.75,-0.66
0.0004266666666666659,0.22,0.06,0.95,-6.29,5.01,0.66
0.00042999999999999923,0.2,0.08,0.99,-4.61,8.27,1.51
0.00043333333333333255,0.21,0.13,1.02,-8.53,19.28,1.47
0.0004366666666666659,0.15,0.15,1.07,-13.19,11.97,0.18
0.0004399999999999992,0.16,0.11,1.05,-12.7,5.47,0.5
0.0004433333333333325,0.19,0.09,1.03,-8.66,2.73,4.27
0.00044666666666666585,0.21,0.08,1.04,-6.72,3.79,5.89
0.0004499999999999992,0.19,0.08,1.03,-8.49,10.89,2.99
0.0004533333333333325,0.16,0.07,1.03,-10.85,15.33,1.54
0.0004566666666666658,0.17,0.08,1.03,-12.38,14.03,3.34
0.00045999999999999915,0.12,0.05,1.02,-8.46,6.64,7.34
0.00046333333333333247,0.12,0.04,0.99,-5.8,2.72,9.6
0.0004666666666666658,0.1,0.03,1.02,-4.98,-3.71,8.11
0.0004699999999999991,0.11,0.02,0.98,1.92,-7.57,12.29
0.00047333333333333244,0.12,0.03,0.95,5.02,-8.61,12.46
0.00047666666666666577,0.12,0.02,0.91,16.29,-8.5,13.73
0.0004799999999999991,0.12,0.03,0.83,27.33,-18.2,12.99
0.0004833333333333324,0.17,0.04,0.86,34.03,-11.65,11.01
0.00048666666666666574,0.17,0.13,1.02,21.15,8.26,7.04
0.0004899999999999991,0.12,0.18,1.19,-1.36,7.27,15.77
0.0004933333333333325,0.12,0.13,1.11,-12.79,1.34,19.24
0.0004966666666666659,0.09,0.01,1.01,-15.59,7.15,15.77
0.0004999999999999993,0.07,-0.01,0.93,-10.52,10.58,13.16
0.0005033333333333326,0.12,0.03,0.97,-9.66,15.79,10.26
0.000506666666666666,0.06,0.01,1.03,-9.42,8.66,10.5
0.0005099999999999994,0.03,0.02,1.06,-9.25,-3.3,11.11
0.0005133333333333328,0.08,0.02,1.04,-8.99,-0.24,10.9
0.0005166666666666661,0.09,0.0,1.04,-9.25,-1.16,6.4
0.0005199999999999995,0.09,0.01,1.04,-7.22,-4.08,3.33
0.0005233333333333329,0.07,-0.02,1.0,-1.83,-6.93,-1.63
0.0005266666666666663,0.07,-0.03,0.99,1.98,-6.47,-2.14
0.0005299999999999997,0.07,-0.02,1.06,4.55,-10.21,-3.83
0.000533333333333333,0.1,0.04,1.07,3.36,-9.69,-4.37
0.0005366666666666664,0.1,0.03,1.09,-1.21,-9.28,-3.71
0.0005399999999999998,0.08,0.03,1.07,-1.56,-17.19,-4.58
0.0005433333333333332,0.11,0.01,1.02,0.78,-14.84,-7.69
0.0005466666666666665,0.13,-0.01,0.97,9.19,-14.95,-8.37
0.0005499999999999999,0.12,0.03,0.96,12.98,-15.86,-10.11
0.0005533333333333333,0.11,0.01,0.93,20.5,-20.37,-12.85
0.0005566666666666667,0.16,0.04,0.93,24.96,-18.6,-13.76
0.0005600000000000001,0.19,0.08,0.98,24.35,-17.97,-10.27
0.0005633333333333334,0.2,0.11,1.02,21.89,-32.0,-6.78
0.0005666666666666668,0.22,0.14,1.03,14.95,-28.87,-4.2
0.0005700000000000002,0.27,0.14,1.02,7.22,-15.19,-4.92
0.0005733333333333336,0.28,0.15,0.99,0.96,-4.21,-4.49
0.000576666666666667,0.27,0.13,0.97,4.95,2.05,-0.06
0.0005800000000000003,0.22,0.16,1.01,-1.04,4.49,2.58
0.0005833333333333337,0.2,0.11,0.98,-0.81,4.67,2.34
0.0005866666666666671,0.17,0.12,1.0,-2.15,-1.59,1.6
0.0005900000000000005,0.16,0.12,1.04,-7.16,-3.47,0.64
0.0005933333333333338,0.19,0.13,1.01,-10.06,-6.46,2.17
0.0005966666666666672,0.21,0.11,0.99,-13.79,0.4,1.11
0.0006000000000000006,0.22,0.09,0.95,-11.25,-0.24,1.39
0.000603333333333334,0.23,0.07,0.93,-6.84,7.05,3.63
0.0006066666666666674,0.22,0.06,0.94,-3.69,12.6,3.65
0.0006100000000000007,0.16,0.07,1.0,-0.84,5.22,3.36
0.0006133333333333341,0.14,0.07,1.01,1.48,-0.44,2.02
0.0006166666666666675,0.17,0.06,1.03,1.24,-1.85,0.56
0.0006200000000000009,0.18,0.06,1.0,3.34,-3.62,-0.84
0.0006233333333333342,0.17,0.05,1.0,4.7,1.19,-2.26
0.0006266666666666676,0.13,0.05,1.05,5.91,-4.46,-3.89
0.000630000000000001,0.14,0.06,1.07,7.08,-15.89,-3.77
0.0006333333333333344,0.21,0.09,1.02,8.41,-11.63,-4.32
0.0006366666666666678,0.23,0.09,1.03,10.56,-5.42,-1.86
0.0006400000000000011,0.24,0.14,1.03,4.6,0.4,-2.5
0.0006433333333333345,0.26,0.09,0.98,3.95,0.26,0.41
0.0006466666666666679,0.19,0.09,0.99,4.56,2.41,0.03
0.0006500000000000013,0.13,0.13,1.09,-1.22,-3.54,-2.99
0.0006533333333333346,0.14,0.16,1.15,-12.06,-13.68,-2.2
0.000656666666666668,0.21,0.12,1.01,-14.18,-15.63,-1.31
0.0006600000000000014,0.21,0.07,0.9,-6.38,-10.4,-1.54
0.0006633333333333348,0.19,0.03,0.93,1.89,-8.76,-1.68
0.0006666666666666682,0.19,0.06,0.97,-1.34,-14.6,0.2
0.0006700000000000015,0.25,0.06,0.93,-3.25,-4.27,-0.47
0.0006733333333333349,0.22,0.08,0.98,-2.96,-5.94,0.21
0.0006766666666666683,0.21,0.08,0.96,0.78,-9.74,1.15
0.0006800000000000017,0.22,0.07,0.95,3.6,-6.41,-0.32
0.000683333333333335,0.21,0.06,0.98,4.66,-8.05,-0.12
0.0006866666666666684,0.23,0.1,1.04,-5.36,-4.18,1.95
0.0006900000000000018,0.24,0.08,0.99,-6.5,0.56,0.7
0.0006933333333333352,0.22,0.07,0.97,-4.29,6.53,-0.44
0.0006966666666666686,0.17,0.07,1.01,-2.44,0.35,1.33
0.0007000000000000019,0.17,0.05,0.99,0.31,-11.57,1.44
0.0007033333333333353,0.19,0.06,0.94,6.03,-5.13,2.76
0.0007066666666666687,0.19,0.04,0.95,13.18,-5.21,1.15
0.0007100000000000021,0.16,0.06,1.01,16.63,-10.12,2.38
0.0007133333333333355,0.14,0.07,1.03,19.05,-12.44,2.17
0.0007166666666666688,0.14,0.1,1.02,19.3,-11.77,3.73
0.0007200000000000022,0.18,0.08,1.04,16.15,-6.5,-1.34
0.0007233333333333356,0.11,0.12,1.16,9.69,-7.45,-4.4
0.000726666666666669,0.12,0.11,1.17,2.67,-11.62,-6.78
0.0007300000000000023,0.14,0.09,1.08,3.27,-9.47,-9.39
0.0007333333333333357,0.15,0.08,1.04,6.26,-8.98,-11.39
0.0007366666666666691,0.16,0.06,1.04,9.59,-16.43,-12.27
0.0007400000000000025,0.23,0.06,0.97,15.66,-13.83,-11.66
0.0007433333333333359,0.25,0.07,0.94,21.5,-12.06,-15.88
0.0007466666666666692,0.28,0.22,1.09,11.48,-8.66,-15.56
0.0007500000000000026,0.32,0.3,1.18,-3.33,-8.93,-11.04
0.000753333333333336,0.3,0.27,1.11,-13.73,-11.95,-6.89
0.0007566666666666694,0.3,0.17,1.03,-17.33,-5.42,-7.45
0.0007600000000000028,0.31,0.11,0.93,-14.89,-3.44,-10.18
0.0007633333333333361,0.29,0.07,0.87,-7.37,0.75,-10.89
0.0007666666666666695,0.28,0.07,0.88,2.12,0.52,-8.6
0.0007700000000000029,0.22,0.04,0.92,22.58,-6.02,-4.7
0.0007733333333333363,0.23,0.17,0.98,13.89,-13.54,-0.93
0.0007766666666666696,0.22,0.13,1.0,12.58,-24.0,0.47
0.000780000000000003,0.26,0.14,0.94,11.04,-27.21,1.13
0.0007833333333333364,0.33,0.16,0.94,3.63,-15.47,-3.44
0.0007866666666666698,0.31,0.11,0.93,9.4,-20.37,-1.97
0.0007900000000000032,0.32,0.09,0.89,17.28,-20.29,1.39
0.0007933333333333365,0.37,0.09,0.84,20.64,-14.34,3.69
0.0007966666666666699,0.36,0.13,0.89,15.71,-4.18,0.21
0.0008000000000000033,0.34,0.12,0.93,10.23,-1.22,-1.21
0.0008033333333333367,0.34,0.13,0.92,10.0,-4.81,1.48
0.00080666666666667,0.35,0.15,0.93,10.87,-4.43,3.15
0.0008100000000000034,0.34,0.13,0.93,11.66,-0.73,3.31
0.0008133333333333368,0.32,0.12,0.95,11.05,-4.72,3.27
0.0008166666666666702,0.35,0.11,0.92,14.34,-2.67,4.81
0.0008200000000000036,0.4,0.15,0.9,13.73,7.44,5.76
0.0008233333333333369,0.34,0.13,0.91,17.59,10.2,6.56
0.0008266666666666703,0.29,0.09,0.89,28.15,11.37,7.27
0.0008300000000000037,0.28,0.11,0.93,25.94,14.7,4.96
0.0008333333333333371,0.23,0.11,0.95,28.87,6.12,2.35
0.0008366666666666705,0.21,0.11,0.92,35.71,1.71,-0.78
0.0008400000000000038,0.23,0.12,0.86,48.64,4.61,-2.32
0.0008433333333333372,0.23,0.14,0.86,60.2,3.94,-2.06
0.0008466666666666706,0.22,0.1,0.83,76.7,1.85,-2.72
0.000850000000000004,0.19,0.1,0.81,96.27,-2.32,-1.15
0.0008533333333333373,0.19,0.15,0.8,102.11,-4.14,-1.3
0.0008566666666666707,0.29,0.21,0.83,102.44,-6.02,-1.85
0.0008600000000000041,0.25,0.38,1.0,84.14,-11.48,-2.64
0.0008633333333333375,0.24,0.48,1.21,53.83,-18.12,-9.82
0.0008666666666666709,0.25,0.57,1.3,15.16,-25.02,-9.83
0.0008700000000000042,0.39,0.59,1.2,-18.92,-8.11,-11.51
0.0008733333333333376,0.42,0.48,1.07,-33.15,4.03,-11.24
0.000876666666666671,0.4,0.37,0.94,-33.98,18.29,-7.54
0.0008800000000000044,0.37,0.3,0.85,-26.4,28.55,-6.02
0.0008833333333333377,0.28,0.26,0.86,-13.4,24.38,0.2
0.0008866666666666711,0.24,0.26,0.9,-4.5,16.75,1.73
0.0008900000000000045,0.2,0.3,0.95,-5.5,0.44,4.15
0.0008933333333333379,0.22,0.27,0.98,3.15,-17.62,6.75
0.0008966666666666713,0.26,0.32,0.93,6.37,-19.37,9.97
0.0009000000000000046,0.26,0.34,0.98,4.4,-22.0,7.79
0.000903333333333338,0.3,0.37,0.98,-4.05,-19.86,4.82
0.0009066666666666714,0.31,0.3,0.9,1.1,-13.24,1.65
0.0009100000000000048,0.32,0.31,0.9,5.25,-7.21,0.78
0.0009133333333333382,0.29,0.31,0.91,7.79,-5.98,1.51
0.0009166666666666715,0.29,0.32,0.94,6.03,-3.11,0.17
0.0009200000000000049,0.28,0.33,0.94,5.65,-4.76,-1.37
0.0009233333333333383,0.28,0.33,0.94,3.33,-0.29,-1.98
0.0009266666666666717,0.31,0.32,0.93,2.82,6.75,-3.66
0.000930000000000005,0.27,0.32,0.95,6.41,-1.51,-1.88
0.0009333333333333384,0.31,0.32,0.93,6.89,-2.0,0.84
0.0009366666666666718,0.3,0.32,0.91,8.67,0.26,1.01
0.0009400000000000052,0.31,0.32,0.93,10.24,0.7,0.46
0.0009433333333333386,0.31,0.36,0.99,2.09,2.32,2.02
0.0009466666666666719,0.28,0.36,1.03,-4.5,-2.47,2.67
0.0009500000000000053,0.28,0.34,0.95,-5.07,-6.32,3.13
0.0009533333333333387,0.27,0.31,0.92,-4.67,-1.5,1.56
0.0009566666666666721,0.29,0.3,0.92,-6.78,2.41,-0.14
0.0009600000000000054,0.3,0.29,0.88,-2.47,5.82,-1.69
0.0009633333333333388,0.3,0.29,0.89,0.73,7.1,-1.51
0.0009666666666666722,0.31,0.32,0.93,-2.29,6.21,0.64
0.0009700000000000056,0.33,0.33,0.94,-6.6,8.4,2.23
0.000973333333333339,0.33,0.32,0.92,-9.11,11.33,1.25
0.0009766666666666723,0.29,0.3,0.93,-8.72,12.02,-1.6
0.0009800000000000056,0.26,0.3,0.94,-9.79,12.82,-4.47
0.0009833333333333389,0.25,0.31,0.96,-11.05,12.29,-5.42
0.0009866666666666721,0.24,0.33,1.0,-14.73,8.0,-4.08
0.0009900000000000054,0.26,0.32,0.96,-16.87,5.47,-2.11
0.0009933333333333387,0.28,0.31,0.95,-16.9,8.0,-3.21
0.000996666666666672,0.29,0.31,0.92,-15.63,7.88,-0.99
0.0010000000000000052,0.31,0.3,0.88,-12.27,10.67,0.17
0.0010033333333333385,0.27,0.28,0.92,-7.62,6.81,1.47
0.0010066666666666718,0.26,0.31,0.92,-6.32,4.34,1.11
0.001010000000000005,0.26,0.3,0.92,-5.08,-1.04,0.87
0.0010133333333333383,0.29,0.3,0.91,-3.95,-3.42,3.83
0.0010166666666666716,0.3,0.31,0.9,-3.37,-3.82,6.2
0.0010200000000000048,0.27,0.32,0.9,-5.66,-1.44,8.78
0.0010233333333333381,0.25,0.3,0.92,-6.63,-6.18,8.84
0.0010266666666666714,0.25,0.28,0.87,-5.48,-3.68,7.54
0.0010300000000000047,0.25,0.26,0.85,-2.9,6.31,3.91
0.001033333333333338,0.22,0.23,0.87,3.04,3.6,2.11
0.0010366666666666712,0.25,0.26,0.91,1.74,5.68,3.02
0.0010400000000000045,0.27,0.27,0.92,1.51,7.92,1.36
0.0010433333333333377,0.26,0.27,0.94,1.88,4.12,2.95
0.001046666666666671,0.25,0.29,0.97,-0.89,3.82,4.21
0.0010500000000000043,0.26,0.27,0.98,-0.61,0.41,5.65
0.0010533333333333375,0.28,0.26,0.96,-0.6,-2.95,6.79
0.0010566666666666708,0.26,0.25,0.98,0.81,-2.84,6.5
0.001060000000000004,0.25,0.25,0.96,3.5,-4.66,4.96
0.0010633333333333374,0.28,0.27,0.97,3.15,-1.56,2.99
0.0010666666666666706,0.28,0.31,1.01,1.27,1.33,2.02
0.0010700000000000039,0.29,0.32,1.01,0.17,-1.54,5.92
0.0010733333333333372,0.33,0.32,1.01,-1.68,-2.15,8.27
0.0010766666666666704,0.27,0.31,1.03,-5.33,-1.88,9.24
0.0010800000000000037,0.27,0.3,0.99,-7.31,-3.95,10.49
0.001083333333333337,0.3,0.28,0.94,-8.24,4.72,8.23
0.0010866666666666702,0.3,0.27,0.96,-8.15,8.0,8.03
0.0010900000000000035,0.28,0.24,0.95,-7.02,8.15,7.66
0.0010933333333333368,0.26,0.23,0.95,-5.24,7.91,7.3
0.00109666666666667,0.27,0.24,0.96,-5.1,8.79,8.38
0.0011000000000000033,0.23,0.23,0.99,-4.72,4.17,5.88
0.0011033333333333366,0.21,0.23,0.99,-5.68,-0.53,4.5
0.0011066666666666699,0.24,0.24,0.99,-6.46,0.12,0.96
0.0011100000000000031,0.24,0.24,0.98,-8.05,1.59,0.17
0.0011133333333333364,0.26,0.23,0.97,-6.08,1.11,0.21
0.0011166666666666697,0.29,0.23,0.96,-7.57,7.02,1.27
0.001120000000000003,0.23,0.23,0.95,-4.15,5.39,-0.11
0.0011233333333333362,0.23,0.25,0.98,-2.23,-0.96,2.32
0.0011266666666666695,0.26,0.26,0.99,-4.32,-1.89,0.2
0.0011300000000000027,0.24,0.24,0.99,-5.01,-2.79,-3.74
0.001133333333333336,0.21,0.23,0.97,-3.65,-4.08,-10.4
0.0011366666666666693,0.18,0.21,0.94,-1.95,-2.17,-19.97
0.0011400000000000026,0.15,0.19,0.96,0.64,2.75,-29.21
0.0011433333333333358,0.21,0.2,0.94,7.44,3.85,-37.76
0.001146666666666669,0.32,0.31,1.01,-4.58,10.2,-40.66
0.0011500000000000024,0.3,0.27,1.02,-5.5,2.06,-34.56
0.0011533333333333356,0.32,0.34,1.03,-9.08,-4.81,-24.92
0.001156666666666669,0.32,0.35,1.05,-10.75,-16.63,-15.63
0.0011600000000000022,0.36,0.35,1.0,-12.31,-11.82,-10.56
0.0011633333333333354,0.32,0.35,0.99,-12.56,-11.83,-7.89
0.0011666666666666687,0.28,0.32,1.0,-13.65,-16.21,-5.19
0.001170000000000002,0.27,0.32,0.97,-17.05,-15.68,-4.05
0.0011733333333333353,0.27,0.31,0.95,-17.42,-18.47,-3.11
0.0011766666666666685,0.28,0.35,0.91,-16.98,-16.03,-0.61
0.0011800000000000018,0.3,0.34,0.94,-20.6,-8.6,2.81
0.001183333333333335,0.26,0.3,0.93,-22.6,-15.16,5.42
0.0011866666666666683,0.28,0.24,0.88,-21.31,-15.91,6.46
0.0011900000000000016,0.23,0.19,0.84,-16.06,-21.48,7.47
0.0011933333333333349,0.19,0.17,0.8,-6.24,-32.76,10.75
0.0011966666666666681,0.23,0.2,0.81,-1.82,-29.44,12.41
0.0012000000000000014,0.27,0.23,0.84,-5.42,-21.5,8.99
0.0012033333333333347,0.27,0.24,0.88,-10.27,-16.0,7.42
0.001206666666666668,0.27,0.24,0.88,-12.84,-17.6,8.03
0.0012100000000000012,0.25,0.21,0.87,-11.39,-20.41,5.57
0.0012133333333333345,0.24,0.2,0.9,-10.66,-25.34,2.61
0.0012166666666666678,0.29,0.19,0.88,-9.77,-26.27,1.3
0.001220000000000001,0.37,0.19,0.89,-10.55,-17.94,0.55
0.0012233333333333343,0.42,0.18,0.87,-10.11,-9.11,0.41
0.0012266666666666676,0.43,0.19,0.88,-7.22,-8.06,4.12
