accl_x,accl_y,accl_z,gyro_x,gyro_y,gyro_z
 -0.12,0.35,0.86, -2.72, 0.35, -1.47,
 -0.11,0.36,0.86, -3.76, 0.44, -0.98,
 -0.12,0.36,0.87, -5.45, -0.58, -0.58,
 -0.10,0.33,0.88, -4.31, 0.73, -0.21,
 -0.11,0.34,0.87, -4.85, -0.41, -0.61,
 -0.09,0.34,0.87, -5.40, 0.06, -1.27,
 -0.09,0.35,0.88, -4.79, 1.50, -1.42,
 -0.09,0.36,0.88, -6.64, 1.83, -1.10,
 -0.10,0.35,0.87, -6.87, 3.27, -1.44,
 -0.10,0.36,0.84, -7.54, 3.91, -0.66,
 -0.10,0.30,0.87, -2.27, 2.85, -2.85,
 -0.10,0.37,0.89, -5.71, 2.64, -2.26,
 -0.11,0.34,0.87, -6.37, 2.37, -1.80,
 -0.12,0.35,0.87, -5.08, 1.31, -1.88,
 -0.12,0.35,0.87, -6.00, 0.78, -1.02,
 -0.11,0.33,0.86, -3.42, 0.67, -1.56,
 -0.12,0.33,0.87, -5.51, -2.35, -0.82,
 -0.11,0.34,0.87, -4.76, -0.12, -0.55,
 -0.10,0.33,0.87, -6.60, -1.59, -0.38,
 -0.10,0.34,0.86, -5.65, -0.29, -0.66,
 -0.11,0.34,0.90, -7.15, -0.69, -0.47,
 -0.09,0.33,0.88, -6.20, 0.29, -0.72,
 -0.10,0.34,0.87, -5.71, 1.24, -1.13,
 -0.09,0.34,0.87, -6.29, 1.60, -0.95,
 -0.10,0.35,0.87, -6.09, 1.74, -1.05,
 -0.10,0.33,0.87, -6.03, 1.54, -1.22,
 -0.10,0.34,0.88, -5.28, 1.85, -1.30,
 -0.10,0.34,0.88, -6.95, 1.28, -1.01,
 -0.10,0.34,0.85, -3.34, 2.96, -1.66,
 -0.10,0.33,0.88, -7.18, 0.37, -1.18,
 -0.10,0.33,0.85, -3.76, 1.65, -1.92,
 -0.12,0.35,0.90, -5.73, 0.55, -1.66,
 -0.10,0.33,0.88, -4.66, 1.01, -1.56,
 -0.10,0.34,0.87, -2.44, 2.17, -1.66,
 -0.10,0.36,0.90, -7.05, 1.36, -0.98,
 -0.10,0.34,0.89, -5.42, 1.69, -1.39,
 -0.11,0.35,0.87, -6.15, 0.90, -1.48,
 -0.10,0.34,0.87, -4.05, 2.05, -1.57,
 -0.10,0.35,0.87, -6.26, 1.56, -1.39,
 -0.11,0.33,0.87, -4.79, 0.73, -1.50,
 -0.10,0.35,0.87, -4.15, 0.67, -1.89,
 -0.10,0.35,0.85, -1.91, 3.71, -0.56,
 -0.12,0.34,0.89, -6.06, 1.24, -0.27,
 -0.11,0.33,0.87, -3.44, 1.13, -0.96,
 -0.11,0.35,0.86, -5.39, 0.44, -1.08,
 -0.11,0.35,0.86, -4.49, 1.79, -0.46,
 -0.12,0.34,0.88, -6.17, 0.24, -0.09,
 -0.11,0.34,0.86, -4.99, 0.69, -0.52,
 -0.12,0.35,0.87, -4.90, -0.40, -0.50,
 -0.09,0.34,0.87, -5.82, -0.38, -0.67,
 -0.10,0.35,0.87, -5.65, 0.87, -0.61,
 -0.10,0.35,0.88, -6.66, -0.09, -0.58,
 -0.11,0.35,0.87, -6.09, 2.34, -0.44,
 -0.09,0.37,0.86, -2.09, 6.21, -0.32,
 -0.12,0.32,0.88, -9.50, -1.83, -1.01,
 -0.10,0.37,0.87, -3.86, 2.78, -0.85,
 -0.12,0.34,0.88, -6.95, 0.52, -0.75,
 -0.11,0.33,0.87, -3.74, 1.27, -0.05,
 -0.11,0.33,0.84, -5.54, 0.90, -0.27,
 -0.12,0.35,0.88, -5.77, -0.78, 0.20,
 -0.11,0.34,0.87, -6.93, -0.24, 0.21,
 -0.11,0.34,0.88, -6.58, -1.57, 0.11,
 -0.11,0.36,0.90, -6.37, -1.97, 0.18,
 -0.11,0.35,0.87, -6.95, -1.85, 0.05,
 -0.10,0.34,0.87, -7.76, -1.82, -0.21,
 -0.09,0.36,0.87, -7.01, -0.27, 0.06,
 -0.09,0.35,0.87, -7.25, 1.21, 0.47,
 -0.09,0.34,0.85, -6.18, 2.93, -0.44,
 -0.10,0.34,0.87, -6.81, 1.79, -0.40,
 -0.10,0.34,0.86, -6.52, 1.71, -1.31,
 -0.10,0.35,0.87, -7.07, 0.90, -1.25,
 -0.10,0.36,0.88, -8.44, 1.02, -1.37,
 -0.10,0.34,0.86, -6.40, 2.34, -1.31,
 -0.11,0.37,0.87, -8.14, 0.55, -0.96,
 -0.11,0.37,0.87, -7.25, 0.61, -0.81,
 -0.12,0.40,0.88, -10.63, -2.12, 1.71,
 -0.10,0.36,0.87, 0.58, 8.21, -2.38,
 -0.15,0.39,0.91, -9.15, -2.79, -1.28,
 -0.08,0.33,0.86, -4.99, 0.85, -0.93,
 -0.11,0.37,0.85, -7.11, -0.12, -0.32,
 -0.10,0.35,0.85, -8.17, 2.24, 1.59,
 -0.11,0.36,0.87, -5.73, 6.31, -2.55,
 -0.13,0.37,0.89, -9.65, -3.33, -0.85,
 -0.11,0.37,0.87, -8.67, 0.35, -0.02,
 -0.11,0.39,0.86, -7.54, 2.35, 0.35,
 -0.10,0.38,0.86, -8.56, -1.37, 1.48,
 -0.10,0.34,0.85, -9.33, -3.51, 2.00,
 -0.08,0.34,0.81, -0.23, 8.82, -1.21,
 -0.21,0.47,0.97, -15.11, -2.49, 2.95,
 -0.09,0.36,0.90, -11.98, 2.06, 4.23,
 -0.13,0.36,0.79, 0.66, 6.09, -0.84,
 -0.07,0.41,0.83, -13.34, -0.81, 5.63,
 -0.05,0.37,0.79, -15.01, 4.55, 5.51,
 -0.06,0.38,0.79, -8.84, 9.16, 4.06,
 -0.15,0.35,0.92, -14.95, -8.96, 3.08,
 -0.04,0.37,0.77, -0.47, 14.52, 5.63,
 -0.11,0.20,0.88, 6.95, 11.16, -6.38,
 -0.14,0.51,0.87, -3.76, 3.47, 4.53,
 -0.05,0.30,0.85, -19.25, 4.15, 11.24,
 -0.16,0.33,0.89, 0.31, 12.63, 2.26,
 -0.04,0.30,0.69, 6.32, 12.27, 4.20,
 -0.06,0.28,0.78, -15.01, 5.07, 3.36,
 -0.18,0.39,0.95, -18.43, -9.02, 4.02,
 -0.05,0.31,0.83, -3.53, -0.70, 0.35,
 -0.10,0.36,0.90, -14.84, 7.34, -0.76,
 -0.15,0.36,0.91, -18.27, -9.82, 7.57,
 0.00,0.28,0.83, -6.85, 1.45, 0.32,
 -0.04,0.41,0.84, -6.32, 20.37, 1.60,
 -0.13,0.34,0.90, -12.84, 2.09, 6.09,
 -0.11,0.37,0.89, -16.67, -1.59, 4.02,
 -0.11,0.35,0.87, -15.71, -4.00, 5.82,
 -0.09,0.32,0.89, -15.02, -1.30, 4.14,
 -0.11,0.35,0.88, -16.56, -2.35, 4.29,
 -0.12,0.33,0.87, -15.88, -5.28, 6.72,
 -0.09,0.32,0.88, -16.84, -6.20, 5.40,
 -0.09,0.34,0.89, -19.56, -5.33, 6.23,
 -0.10,0.34,0.89, -19.10, -3.04, 8.32,
 -0.06,0.32,0.86, -15.74, -2.47, 7.24,
 -0.10,0.35,0.91, -18.69, -6.00, 7.63,
 -0.12,0.35,0.89, -19.22, -8.00, 12.81,
 0.00,0.26,0.82, 2.49, 22.15, -1.80,
 -0.14,0.41,0.93, -7.21, 18.11, 8.06,
 -0.03,0.37,0.88, -21.16, -0.66, 13.02,
 -0.09,0.37,0.92, -26.55, -4.18, 15.02,
 -0.13,0.31,0.93, -18.12, -7.63, 11.22,
 -0.08,0.33,0.90, -21.37, 1.10, 14.90,
 -0.09,0.35,0.87, -20.34, -5.01, 15.39,
 -0.06,0.32,0.89, -20.50, -3.65, 17.08,
 -0.06,0.33,0.89, -21.40, 6.99, 17.85,
 -0.13,0.30,0.94, -22.67, -9.79, 19.77,
 0.06,0.28,0.76, -13.42, 16.02, 19.80,
 -0.07,0.29,0.87, -23.01, 11.82, 18.93,
 -0.14,0.28,0.90, -23.36, -10.79, 22.64,
 0.04,0.28,0.74, -19.04, 7.27, 21.56,
 -0.17,0.30,0.93, -24.27, 5.95, 25.08,
 -0.11,0.26,0.89, -24.67, -11.10, 22.47,
 -0.09,0.31,0.91, -24.50, 8.81, 25.88,
 -0.17,0.26,0.94, -24.98, -2.03, 23.92,
 -0.05,0.28,0.88, -23.66, 11.42, 26.14,
 -0.03,0.26,0.88, -28.95, 10.09, 20.79,
 -0.16,0.28,1.00, -31.24, -4.18, 25.30,
 -0.02,0.28,0.90, -27.88, 8.69, 26.20,
 -0.09,0.25,0.94, -29.98, 0.21, 23.92,
 -0.01,0.25,0.88, -24.73, 8.31, 26.41,
 -0.07,0.26,0.91, -25.62, 13.86, 27.73,
 -0.11,0.24,0.93, -27.50, -3.91, 25.27,
 -0.02,0.24,0.86, -23.27, 12.35, 26.37,
 -0.14,0.25,0.96, -25.79, 1.86, 30.12,
 -0.03,0.22,0.85, -19.62, 13.62, 31.62,
 -0.10,0.24,0.90, -21.60, 7.50, 28.12,
 -0.11,0.25,0.95, -24.02, -2.98, 29.54,
 -0.04,0.24,0.86, -19.62, 15.83, 30.03,
 -0.18,0.20,0.86, -13.30, 1.31, 24.92,
 -0.08,0.23,0.94, -17.05, -0.24, 27.80,
 -0.13,0.24,0.92, -19.08, -10.87, 24.24,
 0.03,0.23,0.82, -15.19, 16.60, 26.44,
 -0.13,0.25,1.00, -19.01, 9.11, 31.88,
 -0.08,0.22,0.93, -22.20, -4.02, 23.71,
 0.01,0.24,0.86, -15.62, 9.92, 32.37,
 -0.11,0.23,0.97, -14.96, 8.96, 33.08,
 -0.07,0.19,0.88, -18.85, 1.65, 20.78,
 -0.10,0.23,0.96, -11.98, -9.91, 21.89,
 -0.02,0.26,1.00, -16.46, -4.26, 26.69,
 -0.06,0.25,0.91, -14.20, 5.08, 23.98,
 -0.04,0.24,0.91, -17.48, 4.38, 24.02,
 -0.07,0.23,0.91, -11.63, 4.70, 23.10,
 -0.07,0.24,0.91, -9.85, 2.49, 22.66,
 -0.03,0.24,0.89, -5.15, 7.57, 23.51,
 -0.08,0.21,0.91, -3.48, 9.45, 21.24,
 -0.08,0.25,0.99, -3.18, 14.81, 22.05,
 -0.08,0.32,0.92, -17.98, 19.63, 19.74,
 -0.14,0.22,0.91, -4.85, 8.81, 23.66,
 -0.09,0.26,0.94, -15.53, 2.38, 14.95,
 -0.06,0.23,0.90, -8.70, -1.10, 19.62,
 -0.06,0.24,0.90, -10.12, 2.56, 18.53,
 -0.06,0.25,0.89, -10.73, 7.85, 17.71,
 -0.04,0.26,0.89, -12.12, 11.80, 16.24,
 -0.07,0.26,0.90, -11.89, 8.55, 15.97,
 -0.06,0.25,0.91, -10.84, 7.28, 17.89,
 -0.03,0.26,0.91, -11.68, 11.05, 19.97,
 -0.06,0.25,0.93, -11.71, 13.10, 22.05,
 -0.06,0.25,0.92, -13.57, 15.36, 20.67,
 -0.04,0.26,0.94, -17.18, 21.68, 21.13,
 -0.07,0.25,0.93, -17.98, 23.40, 21.04,
 -0.05,0.24,0.92, -20.05, 25.60, 20.58,
 -0.05,0.24,0.89, -19.34, 27.42, 20.73,
 -0.06,0.24,0.89, -18.29, 27.79, 21.34,
 -0.07,0.22,0.90, -15.45, 26.23, 20.47,
 -0.08,0.24,0.89, -14.89, 26.64, 21.45,
 -0.08,0.22,0.86, -12.64, 23.42, 17.65,
 -0.10,0.23,0.89, -13.74, 27.50, 21.25,
 -0.11,0.23,0.90, -11.48, 19.54, 18.41,
 -0.14,0.22,0.95, -8.15, -8.44, 8.34,
 -0.04,0.26,0.85, -11.56, 23.15, 19.11,
 -0.15,0.21,0.87, -5.92, 20.40, 21.86,
 -0.09,0.24,0.91, -9.21, 21.36, 16.72,
 -0.08,0.22,0.88, -4.31, 24.46, 19.88,
 -0.11,0.22,0.91, -3.95, 20.63, 18.90,
 -0.35,0.23,1.15, -4.21, -45.10, 1.47,
 0.11,0.22,0.85, 4.11, 14.95, 3.42,
 -0.03,0.26,0.84, 2.95, 49.10, 19.59,
 -0.17,0.24,0.91, -7.83, 31.21, 20.64,
 -0.16,0.20,0.94, -3.16, 14.40, 15.66,
 -0.00,0.16,0.86, -0.06, -17.11, -18.49,
 0.00,0.19,0.91, 19.85, -2.73, -32.27,
 -0.01,0.10,0.43, 149.47, 23.42, -112.20,
 -0.42,0.21,1.26, -17.92, -46.20, -69.15,
 -0.12,0.10,0.67, 122.98, -142.81, -165.56,
 0.41,0.52,0.72, 85.16, -34.32, -123.57,
 0.31,0.39,0.78, 41.71, 52.03, -83.51,
 -0.01,0.35,0.86, 16.69, 90.43, -57.73,
 -0.31,0.34,1.10, 9.31, 47.22, -40.79,
 -0.05,0.22,0.79, 44.98, 83.59, -33.86,
 -0.14,0.37,0.94, -19.40, 73.39, -46.58,
 -0.14,0.02,0.66, -0.56, 19.68, -84.38,
 -0.09,0.41,0.98, 4.21, -2.05, -50.21,
 0.06,0.27,0.90, 9.88, 42.67, -47.05,
 -0.27,0.37,0.94, -2.27, 29.42, -15.11,
 -0.21,0.23,0.85, 17.95, -5.88, 1.01,
 -0.06,0.35,0.88, -0.08, 0.55, 14.82,
 -0.23,0.29,0.85, 8.43, 9.91, 7.60,
 -0.31,0.30,0.95, -3.62, -27.56, 5.54,
 -0.08,0.29,0.82, 4.95, -8.15, 0.58,
 -0.13,0.31,0.86, 1.60, 10.50, -5.76,
 -0.16,0.31,0.89, 1.42, 15.94, -8.26,
 -0.17,0.31,0.90, 2.06, 23.47, -10.29,
 -0.16,0.29,0.89, 9.44, 25.42, -12.73,
 -0.16,0.30,0.91, 6.84, 15.22, -10.31,
 -0.15,0.30,0.88, 1.08, 7.21, -2.15,
 -0.14,0.30,0.87, -2.82, -3.57, 2.40,
 -0.13,0.28,0.86, -4.89, -5.95, 5.57,
 -0.13,0.26,0.87, -1.18, -1.59, 5.11,
 -0.15,0.26,0.89, -1.07, -0.44, 4.14,
 -0.15,0.27,0.89, -0.84, 2.92, 2.21,
 -0.17,0.27,0.90, -1.80, 3.21, 3.54,
 -0.16,0.28,0.89, -3.73, 3.02, 3.85,
 -0.16,0.27,0.89, -4.58, 2.05, 3.48,
 -0.16,0.27,0.88, -4.47, -1.24, 4.02,
 -0.15,0.28,0.89, -3.85, -2.23, 3.24,
 -0.15,0.28,0.89, -3.74, -0.89, 2.63,
 -0.15,0.28,0.90, -4.56, -0.92, 2.24,
 -0.14,0.28,0.89, -5.02, -0.27, 2.18,
 -0.13,0.28,0.88, -5.02, 1.74, 2.61,
 -0.14,0.28,0.89, -4.09, 2.32, 2.53,
 -0.14,0.28,0.88, -4.20, 1.76, 1.92,
 -0.14,0.27,0.89, -4.63, 1.59, 1.44,
 -0.15,0.28,0.89, -4.96, 0.66, 1.39,
 -0.14,0.27,0.87, -4.93, 0.64, 1.71,
 -0.14,0.28,0.88, -4.82, 0.95, 1.69,
 -0.16,0.28,0.88, -3.88, 0.95, 3.02,
 -0.15,0.28,0.89, -4.61, -0.60, 1.60,
 -0.15,0.28,0.88, -4.75, -0.14, 2.05,
 -0.15,0.29,0.89, -4.84, -0.02, 1.01,
 -0.16,0.29,0.89, -4.31, 0.06, 0.56,
 -0.14,0.31,0.89, -4.29, -0.27, 0.05,
 -0.13,0.29,0.89, -4.37, 1.08, 0.24,
 -0.14,0.30,0.89, -4.05, 0.87, 0.21,
 -0.14,0.29,0.88, -4.49, 1.80, 0.66,
 -0.14,0.29,0.89, -4.37, 1.30, 0.23,
 -0.15,0.28,0.88, -3.85, 0.24, 0.82,
 -0.15,0.28,0.89, -4.14, -0.67, 0.11,
 -0.14,0.30,0.88, -4.98, -1.04, 0.55,
 -0.13,0.29,0.88, -4.82, 0.12, 0.81,
 -0.13,0.30,0.89, -4.40, 2.11, 0.53,
 -0.14,0.30,0.88, -4.72, 2.81, 0.56,
 -0.13,0.29,0.88, -3.91, 3.19, 0.17,
 -0.14,0.30,0.87, -3.79, 3.71, -0.05,
 -0.15,0.31,0.88, -3.98, 3.24, 0.96,
 -0.14,0.30,0.88, -2.79, 3.80, 1.18,
 -0.14,0.31,0.88, -3.88, 3.25, 1.10,
 -0.15,0.30,0.90, -4.09, 2.58, 1.53,
 -0.16,0.30,0.90, -3.71, 1.71, 0.96,
 -0.15,0.30,0.90, -4.41, 1.89, 0.84,
 -0.14,0.30,0.87, -4.09, 2.09, 0.23,
 -0.13,0.31,0.86, -3.95, 3.33, 1.07,
 -0.15,0.30,0.88, -3.45, 1.98, 1.45,
 -0.15,0.30,0.87, -3.71, 1.08, 1.15,
 -0.15,0.30,0.87, -3.34, 1.45, 1.39,
 -0.14,0.30,0.87, -2.90, 1.08, 1.62,
 -0.14,0.31,0.88, -3.86, 1.15, 1.13,
 -0.14,0.30,0.89, -4.35, 0.44, 0.92,
 -0.12,0.30,0.88, -4.06, 2.90, 0.78,
 -0.13,0.28,0.88, -3.92, 3.86, 0.32,
 -0.13,0.30,0.89, -4.55, 4.64, -0.02,
 -0.12,0.31,0.88, -4.00, 6.05, 1.44,
 -0.12,0.29,0.87, -3.91, 5.86, 2.21,
 -0.13,0.29,0.88, -4.09, 5.45, 2.53,
 -0.16,0.28,0.88, -4.05, 3.21, 2.75,
 -0.17,0.29,0.88, -3.59, 0.35, 3.07,
 -0.15,0.29,0.86, -3.63, 1.01, 2.75,
 -0.15,0.29,0.87, -3.05, 1.11, 2.31,
 -0.14,0.29,0.86, -2.87, 2.21, 1.91,
 -0.15,0.28,0.88, -3.07, 2.70, 2.02,
 -0.15,0.30,0.87, -4.00, 0.67, 2.64,
 -0.15,0.29,0.88, -3.54, -0.09, 2.69,
 -0.15,0.31,0.88, -3.98, -2.14, 2.99,
 -0.15,0.30,0.89, -3.86, -1.42, 3.15,
 -0.15,0.30,0.90, -3.74, -1.24, 2.53,
 -0.14,0.30,0.89, -5.04, -1.30, 2.29,
 -0.12,0.30,0.87, -6.72, -0.27, 1.85,
 -0.13,0.29,0.87, -6.53, 1.07, 2.64,
 -0.15,0.29,0.88, -3.48, 1.05, 3.42,
 -0.16,0.29,0.90, -1.77, -2.60, 3.01,
 -0.14,0.30,0.90, -3.34, -3.31, 2.24,
 -0.11,0.30,0.87, -5.95, 0.56, 2.11,
 -0.13,0.29,0.85, -7.57, 3.50, 1.21,
 -0.17,0.28,0.86, -3.94, 2.03, 2.37,
 -0.18,0.28,0.88, -3.18, -2.14, 1.92,
 -0.16,0.29,0.91, -3.22, -5.42, 0.69,
 -0.11,0.31,0.89, -4.84, -2.92, 1.50,
 -0.11,0.30,0.87, -7.16, -0.40, 1.59,
 -0.13,0.30,0.86, -6.34, -0.37, 2.93,
 -0.15,0.28,0.88, -4.00, -3.39, 2.87,
 -0.14,0.29,0.88, -2.81, -5.47, 2.78,
 -0.12,0.30,0.89, -3.50, -5.50, 2.31,
 -0.14,0.30,0.88, -3.74, -4.09, 2.24,
 -0.13,0.30,0.88, -3.19, -3.02, 2.41,
 -0.14,0.29,0.88, -3.05, -2.84, 2.26,
 -0.14,0.29,0.88, -3.10, -4.06, 2.15,
 -0.14,0.30,0.88, -3.07, -3.76, 2.37,
 -0.11,0.30,0.89, -4.35, -3.13, 1.88,
 -0.13,0.30,0.89, -4.05, -0.69, 1.60,
 -0.13,0.28,0.89, -4.34, 0.32, 1.65,
 -0.12,0.29,0.89, -3.42, 0.29, 1.08,
 -0.12,0.30,0.87, -4.11, 0.37, 1.89,
 -0.12,0.30,0.87, -1.98, -0.87, 1.73,
 -0.13,0.29,0.87, -2.12, -3.92, 1.54,
 -0.13,0.30,0.88, -1.42, -6.24, 1.98,
 -0.11,0.30,0.88, 0.41, -3.34, 2.46,
 -0.12,0.31,0.90, -0.92, -2.24, 2.44,
 -0.13,0.30,0.88, -2.17, -3.16, 2.63,
 -0.13,0.29,0.88, -2.31, -3.08, 3.05,
 -0.13,0.29,0.89, -2.24, -3.16, 2.81,
 -0.12,0.29,0.88, -2.34, -3.25, 1.74,
 -0.12,0.30,0.88, -2.50, -2.95, 1.88,
 -0.12,0.30,0.87, -2.58, -2.61, 2.90,
 -0.11,0.31,0.88, -2.29, -2.89, 2.96,
 -0.12,0.31,0.88, -2.17, -4.12, 3.56,
 -0.11,0.32,0.90, -4.70, -3.85, 1.91,
 -0.11,0.30,0.88, -4.12, -2.78, 2.43,
 -0.11,0.30,0.88, -4.63, -1.51, 1.74,
 -0.12,0.30,0.88, -3.94, -0.85, 1.76,
 -0.12,0.30,0.89, -3.73, -0.26, 1.54,
 -0.12,0.30,0.89, -3.27, -0.09, 1.33,
 -0.11,0.30,0.89, -3.05, -0.55, 0.96,
 -0.12,0.31,0.89, -3.88, -1.30, 0.89,
 -0.11,0.30,0.88, -3.16, -0.40, 0.50,
 -0.12,0.31,0.89, -3.51, -0.24, 0.81,
 -0.11,0.31,0.89, -4.35, -0.37, 1.04,
 -0.11,0.30,0.89, -3.25, -0.82, 0.78,
 -0.12,0.30,0.88, -3.62, -0.49, 0.23,
 -0.11,0.31,0.88, -4.44, 0.18, -0.26,
 -0.11,0.31,0.89, -4.02, -0.17, 0.11,
 -0.11,0.33,0.88, -4.32, -0.52, -0.78,
 -0.11,0.31,0.88, -2.15, 0.27, -0.93,
 -0.11,0.31,0.88, -3.57, -0.55, -0.38,
 -0.11,0.32,0.89, -3.97, 0.84, -0.49,
 -0.10,0.30,0.89, -5.19, -2.87, -5.28,
 -0.10,0.32,0.89, -2.56, 5.34, -1.22,
 -0.12,0.35,0.89, -4.18, 1.71, -0.70,
 -0.12,0.32,0.87, -5.02, 1.62, 0.03,
 -0.11,0.33,0.89, -3.86, 1.47, 0.53,
 -0.12,0.32,0.89, -4.03, 1.19, 0.02,
 -0.11,0.31,0.88, -2.37, 2.38, -0.11,
 -0.10,0.31,0.88, -4.18, 4.27, -0.52,
 -0.10,0.33,0.87, -5.73, 4.69, -1.83,
 -0.11,0.34,0.88, -4.40, 5.19, -1.24,
 -0.09,0.34,0.86, -2.79, 6.34, 0.90,
 -0.07,0.29,0.93, -0.38, 6.56, 1.18,
 -0.11,0.22,0.94, 1.82, 5.51, 0.89,
 -0.10,0.29,0.87, -2.53, 6.40, -1.25,
 -0.11,0.26,0.85, -3.76, 9.16, -0.32,
 -0.13,0.26,0.86, -2.85, 4.60, -0.98,
 -0.12,0.28,0.86, -1.66, 2.49, -1.15,
 -0.12,0.28,0.85, -2.15, 2.17, -1.50,
 -0.14,0.29,0.89, -1.85, 1.02, -1.30,
 -0.14,0.29,0.89, -2.35, 1.34, -3.13,
 -0.16,0.32,0.91, -3.95, -0.70, -0.84,
 -0.13,0.30,0.89, -3.45, -0.98, -1.33,
 -0.12,0.32,0.89, -3.79, -0.06, -1.08,
 -0.12,0.32,0.89, -3.54, 1.10, -0.52,
 -0.12,0.32,0.88, -4.17, -0.35, -0.63,
 -0.12,0.32,0.86, -3.59, -0.20, -0.58,
 -0.12,0.33,0.87, -3.91, -0.96, -0.46,
 -0.12,0.33,0.88, -4.96, -0.49, -0.26,
 -0.12,0.32,0.88, -5.18, -0.06, 0.43,
 -0.11,0.32,0.87, -3.27, 0.34, 0.92,
 -0.12,0.34,0.87, -6.84, -0.41, 0.34,
 -0.11,0.33,0.87, -5.62, -0.08, 1.10,
 -0.11,0.33,0.88, -5.42, 1.33, 1.22,
 -0.12,0.34,0.88, -6.37, 1.74, 0.14,
 -0.11,0.34,0.88, -6.82, 0.64, 0.47,
 -0.11,0.34,0.87, -6.75, 3.69, 0.21,
 -0.12,0.32,0.88, -4.53, 1.71, 0.03,
 -0.11,0.32,0.89, -5.28, 0.24, 0.44,
 -0.11,0.31,0.90, -5.92, 1.05, 0.70,
 -0.11,0.32,0.89, -5.88, 3.25, -0.31,
 -0.12,0.31,0.89, -6.32, 1.82, -0.34,
 -0.11,0.31,0.89, -5.36, 3.69, 0.08,
 -0.11,0.32,0.88, -5.04, 3.25, 0.02,