time,accl_x,accl_y,accl_z,gyro_x,gyro_y,gyro_z
0.0,0.1,0.04,1.02,8.98,6.92,14.2
3.3333333333333333e-06,0.21,0.1,1.06,-10.82,-13.6,0.72
6.666666666666667e-06,0.18,0.07,1.07,-3.73,11.54,13.94
9.999999999999999e-06,0.19,0.04,1.03,-7.13,3.79,10.11
1.3333333333333333e-05,0.23,0.08,0.96,-7.63,-6.37,9.15
1.6666666666666667e-05,0.17,0.09,1.01,-3.56,5.62,15.77
2e-05,0.08,0.12,1.05,-3.19,-2.24,8.24
2.3333333333333336e-05,0.16,0.11,0.99,-1.86,-1.08,5.73
2.666666666666667e-05,0.15,0.12,0.98,1.04,2.56,4.43
3.0000000000000004e-05,0.16,0.12,1.01,1.85,1.91,3.22
3.3333333333333335e-05,0.15,0.14,1.01,2.63,2.09,3.21
3.6666666666666666e-05,0.16,0.14,1.02,4.05,-1.42,2.99
3.9999999999999996e-05,0.19,0.14,1.04,3.48,-3.37,4.41
4.333333333333333e-05,0.2,0.13,1.02,2.66,-3.69,7.1
4.666666666666666e-05,0.18,0.11,1.03,0.18,-8.05,6.72
4.999999999999999e-05,0.18,0.11,1.03,-1.88,-11.79,6.24
5.333333333333332e-05,0.18,0.1,1.0,-0.92,-10.89,7.4
5.666666666666665e-05,0.21,0.09,0.97,0.35,-4.85,11.34
5.999999999999998e-05,0.19,0.06,0.97,1.24,-7.86,13.77
6.333333333333332e-05,0.19,0.05,0.96,2.06,-11.54,16.14
6.666666666666666e-05,0.2,0.04,0.96,-0.49,-12.81,18.72
7e-05,0.17,0.04,0.96,-0.95,-14.24,18.46
7.333333333333333e-05,0.18,0.04,0.95,-2.08,-14.11,17.37
7.666666666666667e-05,0.2,0.03,0.93,-4.24,-12.24,14.17
8e-05,0.11,0.05,0.91,-2.89,-3.56,9.47
8.333333333333334e-05,0.14,0.07,0.95,-0.38,-6.5,2.72
8.666666666666668e-05,0.18,0.1,0.95,2.63,-0.56,1.66
9.000000000000002e-05,0.18,0.11,0.98,3.62,-0.02,-0.63
9.333333333333336e-05,0.2,0.11,1.01,4.92,-1.62,-1.07
9.66666666666667e-05,0.21,0.11,1.03,5.08,-3.83,-0.35
0.00010000000000000003,0.24,0.11,1.05,4.52,0.69,4.29
0.00010333333333333337,0.24,0.13,1.05,1.79,1.31,7.6
0.00010666666666666671,0.2,0.11,1.07,-0.32,-3.85,6.72
0.00011000000000000004,0.2,0.11,1.06,-1.3,-6.47,5.02
0.00011333333333333338,0.2,0.1,1.02,-1.42,-2.92,4.73
0.00011666666666666672,0.2,0.1,1.02,-0.03,0.05,2.92
0.00012000000000000006,0.19,0.1,0.99,2.69,0.82,0.9
0.0001233333333333334,0.17,0.1,0.99,-0.76,0.9,-4.03
0.00012666666666666672,0.18,0.12,1.0,3.86,4.38,-1.66
0.00013000000000000004,0.2,0.1,1.0,2.55,3.05,-2.93
0.00013333333333333337,0.21,0.11,0.99,3.3,2.79,-2.34
0.0001366666666666667,0.21,0.08,1.03,2.75,5.34,-2.37
0.00014000000000000001,0.23,0.09,1.03,0.73,7.13,-1.74
0.00014333333333333334,0.19,0.1,1.02,0.61,2.72,-3.05
0.00014666666666666666,0.22,0.11,1.01,1.47,6.75,-1.21
0.00015,0.23,0.11,1.03,2.05,7.63,0.23
0.0001533333333333333,0.24,0.12,1.07,-1.86,4.52,0.05
0.00015666666666666663,0.19,0.11,1.03,-5.82,-7.8,-2.14
0.00015999999999999996,0.23,0.1,0.98,1.56,7.07,1.02
0.00016333333333333328,0.21,0.1,0.99,-1.53,8.11,0.72
0.0001666666666666666,0.23,0.09,1.02,-8.92,-21.15,-16.34
0.00016999999999999993,0.18,0.05,1.0,8.76,4.75,11.5
0.00017333333333333325,0.21,0.03,1.04,-1.62,2.89,3.56
0.00017666666666666658,0.24,0.09,1.04,-3.33,2.73,5.57
0.0001799999999999999,0.22,0.09,1.0,-4.11,0.17,6.2
0.00018333333333333323,0.23,0.08,1.01,-2.14,0.93,8.43
0.00018666666666666655,0.21,0.08,1.0,-0.73,1.02,8.93
0.00018999999999999987,0.21,0.09,0.97,-0.89,0.67,8.17
0.0001933333333333332,0.18,0.06,0.98,-0.81,1.04,8.73
0.00019666666666666652,0.2,0.09,1.0,1.01,5.1,9.45
0.00019999999999999985,0.18,0.09,1.03,1.22,0.49,7.97
0.00020333333333333317,0.2,0.08,1.03,-0.6,1.91,9.47
0.0002066666666666665,0.19,0.08,1.03,-1.57,2.66,9.63
0.00020999999999999982,0.19,0.08,1.01,-1.59,2.11,9.51
0.00021333333333333314,0.19,0.07,0.98,-2.11,2.55,9.94
0.00021666666666666647,0.18,0.07,0.98,0.34,0.9,9.69
0.0002199999999999998,0.18,0.07,0.98,1.59,-1.48,8.03
0.00022333333333333311,0.21,0.07,0.96,4.92,-0.41,8.69
0.00022666666666666644,0.22,0.05,0.96,7.56,-2.23,8.44
0.00022999999999999976,0.23,0.05,1.01,7.04,-3.28,8.84
0.0002333333333333331,0.24,0.11,1.07,6.63,-4.32,4.34
0.0002366666666666664,0.25,0.08,1.03,2.93,-1.11,8.49
0.00023999999999999974,0.23,0.07,1.11,0.32,9.82,12.9
0.00024333333333333306,0.2,0.1,1.02,1.71,7.51,11.68
0.0002466666666666664,0.2,0.1,1.02,-0.49,0.41,11.57
0.00024999999999999973,0.21,0.09,1.01,0.53,0.58,14.47
0.00025333333333333306,0.18,0.09,0.99,1.5,-1.39,13.39
0.0002566666666666664,0.18,0.09,0.99,1.62,-1.74,13.11
0.0002599999999999997,0.17,0.1,0.98,2.03,-1.98,12.47
0.00026333333333333303,0.16,0.1,0.97,2.61,-3.1,11.86
0.00026666666666666635,0.16,0.11,0.97,2.73,-2.84,11.4
0.0002699999999999997,0.16,0.11,0.96,3.95,-1.63,11.47
0.000273333333333333,0.14,0.11,0.96,5.92,-2.56,9.59
0.0002766666666666663,0.13,0.11,0.95,8.79,-2.96,6.85
0.00027999999999999965,0.18,0.11,0.96,9.15,2.44,6.26
0.000283333333333333,0.15,0.1,0.99,10.0,0.31,4.35
0.0002866666666666663,0.15,0.12,1.01,9.82,-0.9,2.89
0.0002899999999999996,0.14,0.12,1.05,6.99,-3.19,-0.18
0.00029333333333333295,0.15,0.11,1.06,5.57,-6.79,-3.54
0.00029666666666666627,0.18,0.12,1.06,3.6,-9.1,-3.97
0.0002999999999999996,0.19,0.11,1.03,1.4,-6.52,-3.28
0.0003033333333333329,0.2,0.11,1.03,0.82,-3.68,-3.44
0.00030666666666666624,0.21,0.09,1.02,0.03,-1.69,-3.21
0.00030999999999999957,0.22,0.1,0.99,1.31,-0.12,-3.02
0.0003133333333333329,0.24,0.1,0.97,2.03,3.45,-2.27
0.0003166666666666662,0.27,0.1,0.99,2.9,4.12,0.81
0.00031999999999999954,0.23,0.1,0.99,4.05,-0.21,1.31
0.00032333333333333286,0.25,0.09,0.99,3.88,2.67,2.63
0.0003266666666666662,0.26,0.1,0.99,4.0,4.18,5.71
0.0003299999999999995,0.23,0.09,1.0,3.63,-0.03,5.89
0.00033333333333333283,0.21,0.1,1.0,3.37,1.11,5.62
0.00033666666666666616,0.23,0.1,0.99,1.51,6.5,6.24
0.0003399999999999995,0.23,0.09,0.99,2.9,7.76,6.93
0.0003433333333333328,0.2,0.1,1.0,2.52,1.73,6.26
0.00034666666666666613,0.2,0.11,1.0,-1.86,-1.39,6.03
0.00034999999999999945,0.21,0.12,0.97,2.24,4.66,8.02
0.0003533333333333328,0.19,0.11,0.99,2.38,-1.66,6.58
0.0003566666666666661,0.19,0.11,1.0,3.27,-5.37,7.16
0.0003599999999999994,0.19,0.11,1.0,3.92,-2.53,8.78
0.00036333333333333275,0.17,0.11,1.01,3.33,-1.82,6.66
0.0003666666666666661,0.18,0.11,1.01,3.19,-0.82,5.07
0.0003699999999999994,0.18,0.11,1.02,3.83,3.19,4.66
0.0003733333333333327,0.17,0.11,1.03,1.88,3.18,2.38
0.00037666666666666605,0.17,0.11,1.02,-0.66,5.76,0.87
0.00037999999999999937,0.21,0.11,1.02,-1.92,15.27,3.21
0.0003833333333333327,0.19,0.1,1.02,-3.15,11.86,1.27
0.000386666666666666,0.19,0.11,1.01,-0.52,11.19,0.64
0.00038999999999999934,0.18,0.1,1.01,-0.98,7.53,-0.35
0.00039333333333333267,0.2,0.1,1.01,-0.35,7.36,1.21
0.000396666666666666,0.21,0.1,1.0,0.0,6.27,2.26
0.0003999999999999993,0.2,0.1,0.99,0.21,0.43,1.98
0.00040333333333333264,0.19,0.11,1.0,1.5,0.9,3.19
0.00040666666666666596,0.21,0.1,0.99,2.89,3.11,4.02
0.0004099999999999993,0.23,0.1,1.02,3.57,1.31,6.84
0.0004133333333333326,0.23,0.09,1.03,3.36,1.86,8.67
0.00041666666666666593,0.22,0.09,1.05,-0.31,4.63,10.02
0.00041999999999999926,0.22,0.11,1.06,-5.65,6.0,11.21
0.0004233333333333326,0.18,0.12,1.07,-10.69,6.26,10.79
0.0004266666666666659,0.17,0.11,1.04,-12.17,6.44,9.59
0.00042999999999999923,0.17,0.11,1.02,-12.03,6.55,9.76
0.00043333333333333255,0.18,0.1,1.01,-11.18,5.6,10.93
0.0004366666666666659,0.16,0.1,1.01,-10.02,2.11,10.79
0.0004399999999999992,0.15,0.1,1.0,-10.37,-2.84,9.05
0.0004433333333333325,0.18,0.1,0.98,-10.18,2.9,10.78
0.00044666666666666585,0.17,0.09,0.97,-8.99,7.07,10.47
0.0004499999999999992,0.14,0.08,0.97,-7.33,4.95,6.76
0.0004533333333333325,0.15,0.09,0.95,-5.05,7.15,5.94
0.0004566666666666658,0.18,0.09,0.94,-1.01,10.24,7.04
0.00045999999999999915,0.17,0.09,0.93,2.35,6.09,6.79
0.00046333333333333247,0.17,0.09,0.95,4.79,1.19,6.31
0.0004666666666666658,0.18,0.09,0.96,6.84,-3.21,6.93
0.0004699999999999991,0.16,0.09,0.99,8.05,-7.01,6.2
0.00047333333333333244,0.16,0.1,1.0,7.08,-7.42,5.57
0.00047666666666666577,0.17,0.09,1.03,7.83,-2.9,6.52
0.0004799999999999991,0.15,0.09,1.03,4.93,-1.5,3.44
0.0004833333333333324,0.14,0.1,1.01,4.06,-1.48,0.81
0.00048666666666666574,0.15,0.11,0.99,2.35,4.7,1.54
0.0004899999999999991,0.2,0.12,1.0,3.42,7.37,2.53
0.0004933333333333325,0.19,0.1,0.99,3.42,4.7,3.25
0.0004966666666666659,0.17,0.09,1.02,2.43,-2.4,3.21
0.0004999999999999993,0.19,0.08,1.02,2.0,-6.61,4.41
0.0005033333333333326,0.19,0.08,1.0,-1.77,-6.53,5.04
0.000506666666666666,0.17,0.07,1.0,-0.02,-12.41,2.96
0.0005099999999999994,0.17,0.08,0.97,1.83,-12.23,2.31
0.0005133333333333328,0.18,0.09,0.97,4.46,-5.18,3.45
0.0005166666666666661,0.18,0.09,0.97,4.32,0.93,4.38
0.0005199999999999995,0.17,0.09,0.99,3.18,1.74,3.34
0.0005233333333333329,0.15,0.1,1.0,2.12,-2.0,0.98
0.0005266666666666663,0.18,0.09,1.0,2.06,-1.07,1.79
0.0005299999999999997,0.18,0.09,1.01,2.69,-0.66,2.41
0.000533333333333333,0.17,0.09,1.03,0.52,-4.85,0.06
0.0005366666666666664,0.17,0.1,1.03,1.27,-6.85,-0.44
0.0005399999999999998,0.17,0.09,1.0,2.47,-5.91,-1.11
0.0005433333333333332,0.17,0.1,1.04,-10.37,-4.55,-6.0
0.0005466666666666665,0.19,0.09,1.11,-4.64,-2.81,-2.75
0.0005499999999999999,0.21,0.1,0.95,0.31,7.05,1.74
0.0005533333333333333,0.18,0.12,0.98,0.95,8.0,0.24
0.0005566666666666667,0.17,0.11,1.0,2.05,8.81,0.24
0.0005600000000000001,0.15,0.11,1.01,1.85,5.21,-2.03
0.0005633333333333334,0.15,0.12,1.0,2.31,0.4,-3.91
0.0005666666666666668,0.19,0.12,1.0,-0.29,3.44,-3.89
0.0005700000000000002,0.21,0.12,1.0,3.15,0.87,-2.17
0.0005733333333333336,0.21,0.11,1.0,3.94,1.44,0.93
0.000576666666666667,0.22,0.1,1.0,4.06,1.37,4.08
0.0005800000000000003,0.21,0.11,1.0,3.57,-1.42,6.9
0.0005833333333333337,0.2,0.11,0.99,3.18,-6.12,8.61
0.0005866666666666671,0.18,0.11,1.0,3.02,-8.87,10.52
0.0005900000000000005,0.17,0.1,1.01,2.37,-10.12,11.45
0.0005933333333333338,0.16,0.09,1.02,0.03,-9.91,10.79
0.0005966666666666672,0.15,0.09,1.05,-2.31,-9.44,7.85
0.0006000000000000006,0.15,0.1,1.03,-3.77,-3.27,4.7
0.000603333333333334,0.16,0.1,1.03,-4.61,0.84,0.58
0.0006066666666666674,0.16,0.11,1.0,-5.27,3.63,-3.39
0.0006100000000000007,0.18,0.12,1.0,-5.19,3.77,-4.72
0.0006133333333333341,0.2,0.12,1.0,-4.78,-0.18,-5.31
0.0006166666666666675,0.22,0.12,1.01,-5.68,-3.77,-3.69
0.0006200000000000009,0.24,0.12,0.99,-4.6,-6.12,0.14
0.0006233333333333342,0.24,0.11,1.01,-4.23,-8.82,3.53
0.0006266666666666676,0.21,0.11,0.99,-3.36,-11.4,4.92
0.000630000000000001,0.23,0.11,0.99,-2.79,-9.25,7.11
0.0006333333333333344,0.2,0.11,0.98,-1.71,-6.69,6.73
0.0006366666666666678,0.19,0.09,1.0,0.08,-3.65,6.12
0.0006400000000000011,0.19,0.1,1.01,0.4,2.56,5.91
0.0006433333333333345,0.19,0.1,1.02,0.63,7.85,5.04
0.0006466666666666679,0.2,0.09,1.03,0.37,6.47,4.26
0.0006500000000000013,0.22,0.09,1.04,-1.25,3.25,3.73
0.0006533333333333346,0.23,0.09,1.02,-2.53,-0.11,5.11
0.000656666666666668,0.24,0.09,1.0,-2.52,-3.69,7.48
0.0006600000000000014,0.23,0.09,1.0,-2.06,-5.89,8.69
0.0006633333333333348,0.22,0.1,0.98,-0.69,-5.47,9.01
0.0006666666666666682,0.21,0.09,0.98,1.31,-5.28,8.24
0.0006700000000000015,0.21,0.09,1.0,2.38,-3.91,8.4
0.0006733333333333349,0.22,0.08,1.0,2.89,1.89,9.69
0.0006766666666666683,0.21,0.08,1.01,2.44,5.3,11.02
0.0006800000000000017,0.19,0.08,1.02,0.66,1.57,9.36
0.000683333333333335,0.19,0.09,1.01,-0.9,-0.5,7.82
0.0006866666666666684,0.22,0.09,1.02,-0.85,0.81,8.47
0.0006900000000000018,0.22,0.09,1.01,-1.65,0.31,8.9
0.0006933333333333352,0.21,0.09,1.0,-2.14,-0.21,10.02
0.0006966666666666686,0.2,0.08,0.99,-2.99,-6.03,10.03
0.0007000000000000019,0.21,0.08,0.97,-1.05,3.37,12.89
0.0007033333333333353,0.18,0.09,0.99,0.49,0.18,10.66
0.0007066666666666687,0.19,0.09,0.98,0.67,-1.56,8.93
0.0007100000000000021,0.2,0.09,0.99,1.91,3.69,9.68
0.0007133333333333355,0.19,0.09,1.01,2.82,2.31,8.47
0.0007166666666666688,0.18,0.09,1.0,3.13,5.04,7.89
0.0007200000000000022,0.17,0.1,1.02,2.02,-0.73,5.34
0.0007233333333333356,0.21,0.09,1.0,2.15,0.85,6.72
0.000726666666666669,0.2,0.1,1.02,2.0,1.65,7.48
0.0007300000000000023,0.21,0.1,1.01,1.54,3.73,8.47
0.0007333333333333357,0.2,0.09,1.02,1.59,2.79,8.84
0.0007366666666666691,0.18,0.09,1.01,0.41,-0.85,7.56
0.0007400000000000025,0.21,0.1,0.99,-0.03,0.69,9.01
0.0007433333333333359,0.21,0.1,1.0,2.56,4.63,9.25
0.0007466666666666692,0.16,0.09,1.0,1.19,0.23,6.12
0.0007500000000000026,0.17,0.1,0.99,-0.11,2.09,4.9
0.000753333333333336,0.18,0.1,0.99,-0.15,3.68,3.27
0.0007566666666666694,0.16,0.09,1.0,0.7,3.07,1.24
0.0007600000000000028,0.15,0.09,1.0,1.25,0.53,-2.4
0.0007633333333333361,0.19,0.11,1.01,1.82,2.81,-2.21
0.0007666666666666695,0.21,0.11,0.99,1.83,7.53,-1.07
0.0007700000000000029,0.21,0.1,1.0,1.5,4.6,0.43
0.0007733333333333363,0.21,0.1,1.0,0.92,0.87,1.54
0.0007766666666666696,0.21,0.1,0.99,0.67,-1.45,2.46
0.000780000000000003,0.23,0.1,1.0,1.01,1.74,5.5
0.0007833333333333364,0.19,0.1,1.01,0.92,-0.95,4.79
0.0007866666666666698,0.19,0.11,1.0,0.11,-1.47,2.82
0.0007900000000000032,0.19,0.1,1.0,0.93,1.97,2.93
0.0007933333333333365,0.2,0.1,1.01,0.76,6.85,2.81
0.0007966666666666699,0.18,0.1,1.0,0.35,4.84,1.16
0.0008000000000000033,0.19,0.09,0.99,0.11,3.48,0.63
0.0008033333333333367,0.19,0.09,0.98,0.47,1.33,1.4
0.00080666666666667,0.19,0.1,0.98,1.5,-1.18,2.03
0.0008100000000000034,0.19,0.1,0.98,1.95,-3.69,2.32
0.0008133333333333368,0.18,0.09,0.97,1.4,-2.9,1.76
0.0008166666666666702,0.19,0.1,0.99,0.31,2.24,0.06
0.0008200000000000036,0.17,0.09,0.99,-0.72,8.53,-3.18
0.0008233333333333369,0.11,0.08,1.01,-0.64,9.19,-10.09
0.0008266666666666703,0.08,0.09,1.0,0.08,9.92,-16.85
0.0008300000000000037,0.1,0.09,1.02,-1.11,11.01,-20.87
0.0008333333333333371,0.14,0.1,1.04,-2.53,11.97,-21.1
0.0008366666666666705,0.2,0.1,1.05,-5.02,11.37,-18.26
0.0008400000000000038,0.24,0.11,1.02,7.85,11.1,-7.11
0.0008433333333333372,0.24,0.14,1.03,-3.56,14.76,-5.47
0.0008466666666666706,0.25,0.09,1.02,-3.91,12.72,1.5
0.000850000000000004,0.2,0.11,0.99,-2.09,1.39,2.78
0.0008533333333333373,0.19,0.1,0.98,-1.24,-4.03,3.08
0.0008566666666666707,0.18,0.1,0.96,2.37,-5.1,3.1
0.0008600000000000041,0.19,0.11,0.97,5.19,-3.04,3.39
0.0008633333333333375,0.21,0.1,1.0,6.34,-0.31,4.7
0.0008666666666666709,0.19,0.09,1.01,5.62,0.08,4.61
0.0008700000000000042,0.2,0.1,1.03,3.91,-0.34,5.05
0.0008733333333333376,0.2,0.1,1.02,2.47,-0.06,6.53
0.000876666666666671,0.19,0.1,1.03,1.11,-3.31,6.61
0.0008800000000000044,0.18,0.11,1.02,-1.02,-5.18,6.63
0.0008833333333333377,0.17,0.11,1.0,-0.43,-6.15,6.64
0.0008866666666666711,0.18,0.11,1.02,0.24,-4.87,6.9
0.0008900000000000045,0.16,0.11,0.99,0.29,-1.71,6.35
0.0008933333333333379,0.17,0.12,1.01,2.11,1.15,6.0
0.0008966666666666713,0.17,0.1,1.02,1.73,2.66,6.31
0.0009000000000000046,0.16,0.1,1.03,1.69,0.35,4.82
0.000903333333333338,0.16,0.1,1.03,0.32,-1.69,3.62
0.0009066666666666714,0.17,0.1,1.03,-0.81,-2.32,2.87
0.0009100000000000048,0.16,0.1,1.03,-1.36,-0.34,3.05
0.0009133333333333382,0.17,0.1,1.02,-2.21,-2.35,2.2
0.0009166666666666715,0.17,0.1,1.01,-2.95,-3.11,0.81
0.0009200000000000049,0.18,0.09,1.0,-1.79,1.04,2.78
0.0009233333333333383,0.19,0.1,0.99,-2.2,5.6,3.48
0.0009266666666666717,0.19,0.09,0.98,-2.05,4.96,3.98
0.000930000000000005,0.18,0.08,0.99,-1.07,4.73,5.54
0.0009333333333333384,0.16,0.07,0.99,-0.92,0.43,3.44
0.0009366666666666718,0.16,0.07,0.98,-0.11,1.28,2.37
0.0009400000000000052,0.17,0.07,0.96,0.63,3.56,0.4
0.0009433333333333386,0.17,0.07,0.97,1.73,5.86,-1.02
0.0009466666666666719,0.19,0.08,0.97,2.12,8.73,-0.73
0.0009500000000000053,0.2,0.08,0.98,2.12,13.47,0.72
0.0009533333333333387,0.19,0.09,1.01,2.11,10.5,1.63
0.0009566666666666721,0.19,0.1,1.02,1.62,8.7,4.18
0.0009600000000000054,0.17,0.1,1.02,0.05,1.45,4.61
0.0009633333333333388,0.18,0.1,1.02,-1.24,-1.97,6.61
0.0009666666666666722,0.16,0.1,1.02,-0.84,-1.1,8.03
0.0009700000000000056,0.15,0.1,1.02,-0.81,-0.05,8.11
0.000973333333333339,0.13,0.1,1.0,0.34,-0.38,6.27
0.0009766666666666723,0.14,0.09,1.01,-0.46,-1.42,3.94
0.0009800000000000056,0.14,0.08,0.95,1.69,1.04,4.37
0.0009833333333333389,0.12,0.1,0.99,1.68,1.21,2.53
0.0009866666666666721,0.12,0.11,1.03,1.16,-3.88,-0.05
0.0009900000000000054,0.16,0.11,1.01,2.09,-0.81,1.5
