time,accl_x,accl_y,accl_z,gyro_x,gyro_y,gyro_z
0.0,0.32,0.05,1.02,0.64,-11.27,-5.16
3.3333333333333333e-06,0.32,0.03,0.97,-1.31,-13.21,-4.24
6.666666666666667e-06,0.37,0.03,0.98,-0.08,-2.38,2.2
9.999999999999999e-06,0.36,0.05,1.03,-3.45,-2.14,2.03
1.3333333333333333e-05,0.33,0.03,0.97,-4.21,5.21,-1.48
1.6666666666666667e-05,0.31,0.03,0.98,-5.56,2.06,-4.89
2e-05,0.32,0.03,0.98,-6.03,2.31,-5.59
2.3333333333333336e-05,0.34,0.02,0.98,-1.69,-14.82,-12.0
2.666666666666667e-05,0.44,-0.01,0.98,0.31,-10.46,-6.72
3.0000000000000004e-05,0.29,0.03,0.98,-2.29,-8.44,-4.84
3.3333333333333335e-05,0.36,0.05,0.95,-7.15,-5.53,-3.92
3.6666666666666666e-05,0.33,0.03,0.95,-4.03,-4.85,-3.39
3.9999999999999996e-05,0.33,0.03,0.94,-4.15,-6.5,-4.2
4.333333333333333e-05,0.34,0.02,0.92,-1.16,-5.36,-3.62
4.666666666666666e-05,0.35,0.02,0.94,0.2,-3.54,-4.12
4.999999999999999e-05,0.37,0.03,0.97,1.62,-0.43,-1.44
5.333333333333332e-05,0.35,0.03,0.97,0.02,-3.08,-1.01
5.666666666666665e-05,0.37,0.03,0.97,-2.0,-3.83,0.06
5.999999999999998e-05,0.37,0.04,0.97,-1.15,-5.05,1.04
6.333333333333332e-05,0.34,0.02,0.96,0.02,-9.62,-0.76
6.666666666666666e-05,0.32,0.04,0.97,-1.4,-11.65,-1.88
7e-05,0.35,0.04,0.96,-0.43,-8.43,-1.18
7.333333333333333e-05,0.35,0.03,0.96,-0.5,-6.17,-0.63
7.666666666666667e-05,0.38,0.03,0.95,-0.38,0.35,1.1
8e-05,0.37,0.03,0.96,-0.82,4.31,2.73
8.333333333333334e-05,0.36,0.03,0.97,-1.5,3.89,2.27
8.666666666666668e-05,0.36,0.03,0.96,-0.32,7.59,3.65
9.000000000000002e-05,0.36,0.03,0.95,-0.35,4.85,3.94
9.333333333333336e-05,0.34,0.02,0.95,-0.52,1.83,2.92
9.66666666666667e-05,0.33,0.02,0.97,-0.9,-0.81,2.02
0.00010000000000000003,0.34,0.03,0.96,0.76,-0.69,1.31
0.00010333333333333337,0.33,0.03,0.96,-0.6,-3.28,-0.08
0.00010666666666666671,0.35,0.03,0.97,0.31,-0.23,-0.11
0.00011000000000000004,0.36,0.02,0.97,0.03,2.31,-0.24
0.00011333333333333338,0.36,0.03,0.97,-1.15,2.41,-0.24
0.00011666666666666672,0.36,0.03,0.98,-1.36,1.74,0.29
0.00012000000000000006,0.35,0.03,0.97,-1.02,-0.55,1.13
0.0001233333333333334,0.34,0.03,0.98,-0.79,-4.46,0.38
0.00012666666666666672,0.33,0.03,0.97,-0.08,-5.18,-0.23
0.00013000000000000004,0.35,0.03,0.97,0.64,-5.22,-0.03
0.00013333333333333337,0.35,0.03,0.96,-0.82,-2.44,0.64
0.0001366666666666667,0.35,0.03,0.97,-1.31,-2.34,-0.63
0.00014000000000000001,0.33,0.02,0.98,-0.69,-1.8,-0.46
0.00014333333333333334,0.33,0.03,0.97,-1.76,0.67,-0.15
0.00014666666666666666,0.33,0.03,0.97,-1.48,-1.05,-0.95
0.00015,0.31,0.03,0.97,-1.62,-1.94,-2.12
0.0001533333333333333,0.32,0.03,0.96,-1.3,-3.15,-3.01
0.00015666666666666663,0.33,0.02,0.95,-0.79,-3.51,-3.6
0.00015999999999999996,0.35,0.02,0.96,-0.72,-3.91,-3.36
0.00016333333333333328,0.36,0.02,0.96,-0.32,-3.57,-2.43
0.0001666666666666666,0.36,0.02,0.96,-0.08,-3.33,-2.44
0.00016999999999999993,0.34,0.01,0.95,0.9,-4.82,-3.4
0.00017333333333333325,0.35,0.03,0.96,1.21,-4.46,-3.8
0.00017666666666666658,0.36,0.04,0.96,1.05,-4.15,-4.35
0.0001799999999999999,0.37,0.03,0.96,0.44,-0.92,-4.0
0.00018333333333333323,0.38,0.04,0.97,-0.79,-0.52,-2.99
0.00018666666666666655,0.36,0.03,0.98,-1.19,-1.77,-2.63
0.00018999999999999987,0.39,0.04,0.98,-1.65,0.79,-0.58
0.0001933333333333332,0.38,0.04,0.98,-1.65,1.6,0.82
0.00019666666666666652,0.34,0.02,0.97,-1.69,-1.28,-0.72
0.00019999999999999985,0.36,0.03,0.95,-1.89,-2.44,-1.24
0.00020333333333333317,0.34,0.03,0.95,-1.47,-2.84,-2.34
0.0002066666666666665,0.36,0.04,0.96,-0.47,-3.48,-2.53
0.00020999999999999982,0.37,0.03,0.97,0.26,-3.02,-1.71
0.00021333333333333314,0.35,0.02,0.98,-0.35,-3.15,-2.29
0.00021666666666666647,0.35,0.02,0.97,-0.09,-3.31,-2.2
0.0002199999999999998,0.35,0.03,0.95,0.99,-4.2,-2.95
0.00022333333333333311,0.33,0.03,0.97,-0.67,-5.36,-5.07
0.00022666666666666644,0.37,0.03,0.96,-0.55,-1.31,-3.88
0.00022999999999999976,0.37,0.03,0.95,-0.63,0.2,-3.33
0.0002333333333333331,0.35,0.03,0.97,-0.93,-0.72,-4.34
0.0002366666666666664,0.36,0.04,0.97,-1.42,-2.46,-5.11
0.00023999999999999974,0.38,0.04,0.97,-1.02,-0.17,-2.18
0.00024333333333333306,0.37,0.03,0.96,-0.67,-2.89,-3.18
0.0002466666666666664,0.35,0.03,0.96,-1.92,-6.09,-4.55
0.00024999999999999973,0.36,0.02,0.96,-1.74,-6.67,-4.5
0.00025333333333333306,0.34,0.01,0.97,-1.82,-7.36,-6.17
0.0002566666666666664,0.36,0.02,0.95,-1.42,-5.56,-6.69
0.0002599999999999997,0.38,0.01,0.95,-0.15,-0.05,-4.75
0.00026333333333333303,0.38,0.02,0.97,-0.67,-1.13,-4.79
0.00026666666666666635,0.38,0.02,0.97,-1.62,-2.31,-4.72
0.0002699999999999997,0.4,0.03,0.96,-1.21,-0.99,-3.51
0.000273333333333333,0.36,0.03,0.95,-1.07,-3.97,-5.56
0.0002766666666666663,0.36,0.02,0.95,0.18,-5.83,-6.31
0.00027999999999999965,0.37,0.02,0.95,1.37,-6.96,-7.65
0.000283333333333333,0.36,0.02,0.96,0.92,-7.1,-7.83
0.0002866666666666663,0.4,0.03,0.96,1.27,-2.52,-5.73
0.0002899999999999996,0.41,0.04,0.97,0.69,-0.32,-4.0
0.00029333333333333295,0.43,0.04,0.96,0.03,2.06,-1.88
0.00029666666666666627,0.42,0.05,0.96,-0.24,2.29,0.44
0.0002999999999999996,0.38,0.03,0.96,-0.5,-3.13,-0.73
0.0003033333333333329,0.36,0.03,0.96,0.46,-6.9,-1.6
0.00030666666666666624,0.38,0.03,0.93,2.26,-4.5,-0.17
0.00030999999999999957,0.35,0.02,0.93,3.11,-5.22,-2.26
0.0003133333333333329,0.34,0.03,0.94,4.0,-7.51,-5.11
0.0003166666666666662,0.38,0.02,0.93,4.9,-4.12,-4.2
0.00031999999999999954,0.37,0.03,0.94,4.96,-2.2,-3.62
0.00032333333333333286,0.36,0.02,0.95,4.66,-1.94,-3.5
0.0003266666666666662,0.39,0.03,0.96,4.61,-0.96,-1.45
0.0003299999999999995,0.38,0.06,1.0,7.91,6.35,4.76
0.00033333333333333283,0.39,0.05,0.97,1.4,-1.36,1.89
0.00033666666666666616,0.48,0.05,0.96,2.14,5.27,9.39
0.0003399999999999995,0.41,0.04,0.96,0.21,6.12,11.69
0.0003433333333333328,0.42,0.04,0.94,-0.4,6.72,14.58
0.00034666666666666613,0.41,0.04,0.94,0.55,10.43,17.48
0.00034999999999999945,0.34,0.03,0.95,-0.02,7.02,12.87
0.0003533333333333328,0.32,0.03,0.93,1.86,3.48,8.84
0.0003566666666666661,0.28,0.03,0.95,2.32,-0.02,1.94
0.0003599999999999994,0.32,0.03,0.94,2.69,0.9,-2.35
0.00036333333333333275,0.36,0.03,0.96,3.13,5.21,-1.57
0.0003666666666666661,0.35,0.04,0.95,6.09,4.73,-0.96
0.0003699999999999994,0.34,0.04,0.97,3.73,2.26,-2.24
0.0003733333333333327,0.34,0.05,0.96,2.14,-3.22,-4.41
0.00037666666666666605,0.39,0.05,0.97,0.95,-2.44,-3.16
0.00037999999999999937,0.38,0.05,0.97,1.1,-2.18,-1.88
0.0003833333333333327,0.38,0.07,0.95,1.01,-2.41,-2.98
0.000386666666666666,0.4,0.06,0.98,0.66,1.97,-2.21
0.00038999999999999934,0.39,0.05,0.99,-0.24,2.98,-1.54
0.00039333333333333267,0.38,0.06,0.98,-0.53,0.87,-1.08
0.000396666666666666,0.37,0.04,0.97,-0.23,0.06,-1.59
0.0003999999999999993,0.41,0.04,0.95,1.73,6.56,0.79
0.00040333333333333264,0.39,0.05,0.96,3.48,4.93,1.24
0.00040666666666666596,0.38,0.05,0.94,1.68,2.73,3.08
0.0004099999999999993,0.37,0.03,0.95,2.81,2.4,2.46
0.0004133333333333326,0.36,0.03,0.93,5.74,5.63,2.67
0.00041666666666666593,0.34,0.03,0.96,5.21,6.64,1.1
0.00041999999999999926,0.34,0.03,0.99,4.61,5.56,-1.16
0.0004233333333333326,0.33,0.04,0.99,4.05,5.16,-3.27
0.0004266666666666659,0.34,0.05,1.0,1.85,6.31,-4.08
0.00042999999999999923,0.36,0.05,0.99,1.16,7.37,-3.1
0.00043333333333333255,0.37,0.06,0.98,-0.29,5.79,-2.5
0.0004366666666666659,0.37,0.07,0.96,-0.6,3.22,-2.37
0.0004399999999999992,0.38,0.06,0.95,-0.87,3.66,-1.02
0.0004433333333333325,0.38,0.06,0.94,-0.5,3.37,0.52
0.00044666666666666585,0.38,0.06,0.93,0.53,1.05,0.4
0.0004499999999999992,0.37,0.05,0.94,0.5,-0.46,0.35
0.0004533333333333325,0.38,0.06,0.94,1.44,1.33,1.94
0.0004566666666666658,0.36,0.06,0.94,2.18,-0.09,1.66
0.00045999999999999915,0.37,0.04,0.94,2.26,-0.21,2.12
0.00046333333333333247,0.38,0.05,0.96,0.89,1.18,3.97
0.0004666666666666658,0.37,0.04,0.95,2.02,0.55,5.11
0.0004699999999999991,0.34,0.06,0.94,2.66,-2.14,4.35
0.00047333333333333244,0.34,0.05,0.94,3.71,1.21,4.18
0.00047666666666666577,0.35,0.06,0.96,2.5,3.08,2.14
0.0004799999999999991,0.34,0.04,0.95,2.99,0.4,1.05
0.0004833333333333324,0.33,0.05,0.96,4.14,0.2,0.6
0.00048666666666666574,0.34,0.05,0.97,3.63,-0.93,0.24
0.0004899999999999991,0.35,0.07,0.97,1.82,-0.55,-0.76
0.0004933333333333325,0.36,0.07,0.98,1.57,0.92,0.43
0.0004966666666666659,0.34,0.07,0.99,0.81,0.09,-0.72
0.0004999999999999993,0.36,0.06,0.98,0.0,-1.42,-1.18
0.0005033333333333326,0.37,0.06,0.97,0.03,-2.44,-0.56
0.000506666666666666,0.34,0.07,0.98,-0.09,-3.69,-0.27
0.0005099999999999994,0.35,0.06,0.97,-0.79,-3.04,-0.89
0.0005133333333333328,0.36,0.06,0.97,-0.84,-3.66,-0.08
0.0005166666666666661,0.36,0.05,0.96,-0.17,-0.37,1.34
0.0005199999999999995,0.35,0.05,0.96,0.08,-0.93,1.02
0.0005233333333333329,0.34,0.05,0.95,3.44,-4.55,-1.08
0.0005266666666666663,0.25,0.02,0.96,3.37,-0.82,0.4
0.0005299999999999997,0.33,0.05,0.95,2.21,-5.51,-2.43
0.000533333333333333,0.35,0.05,0.94,3.37,-1.69,-0.95
0.0005366666666666664,0.35,0.06,0.95,3.74,-0.41,-0.46
0.0005399999999999998,0.37,0.06,0.95,3.62,0.61,0.49
0.0005433333333333332,0.35,0.06,0.95,4.63,2.12,0.98
0.0005466666666666665,0.34,0.06,0.94,6.56,3.24,0.29
0.0005499999999999999,0.32,0.07,0.95,6.73,0.99,-1.36
0.0005533333333333333,0.33,0.07,0.96,7.56,2.98,-2.5
0.0005566666666666667,0.33,0.08,0.97,7.36,2.84,-5.16
0.0005600000000000001,0.34,0.08,0.97,7.34,5.22,-6.11
0.0005633333333333334,0.37,0.08,0.98,6.64,6.85,-6.73
0.0005666666666666668,0.37,0.09,0.98,6.31,5.44,-6.61
0.0005700000000000002,0.39,0.09,1.0,5.18,3.76,-4.84
0.0005733333333333336,0.41,0.09,0.97,4.6,1.27,-2.02
0.000576666666666667,0.39,0.09,0.97,4.73,-2.95,-1.68
0.0005800000000000003,0.37,0.09,0.97,4.85,-3.88,-1.36
0.0005833333333333337,0.36,0.09,0.97,4.06,-2.11,-1.71
0.0005866666666666671,0.34,0.08,0.98,3.45,-0.55,-2.95
0.0005900000000000005,0.35,0.08,1.0,1.92,2.23,-3.33
0.0005933333333333338,0.34,0.07,0.98,1.36,1.56,-3.62
0.0005966666666666672,0.33,0.08,0.97,1.47,-1.98,-4.75
0.0006000000000000006,0.36,0.07,0.97,1.3,-2.89,-4.09
0.000603333333333334,0.37,0.07,0.95,2.6,-2.64,-1.73
0.0006066666666666674,0.35,0.06,0.96,3.88,-3.85,-1.51
0.0006100000000000007,0.35,0.08,0.94,6.38,-10.87,-0.4
0.0006133333333333341,0.36,0.06,0.95,7.71,-10.18,1.1
0.0006166666666666675,0.37,0.07,0.99,7.8,-11.25,2.0
0.0006200000000000009,0.35,0.06,0.97,7.97,-9.71,2.14
0.0006233333333333342,0.37,0.06,0.96,8.78,-8.5,2.85
0.0006266666666666676,0.37,0.08,0.95,11.16,-3.98,5.25
0.000630000000000001,0.38,0.1,0.92,10.06,-1.36,3.28
0.0006333333333333344,0.37,0.11,0.94,8.4,-0.09,0.21
0.0006366666666666678,0.4,0.11,0.95,9.37,1.34,0.49
0.0006400000000000011,0.4,0.12,0.98,9.42,-2.06,0.82
0.0006433333333333345,0.39,0.13,0.98,6.99,-4.81,0.26
0.0006466666666666679,0.39,0.11,1.0,4.02,-5.62,0.29
0.0006500000000000013,0.39,0.11,0.99,1.16,-2.29,0.93
0.0006533333333333346,0.36,0.11,0.96,0.63,-1.91,0.32
0.000656666666666668,0.36,0.11,0.94,0.82,0.61,-0.09
0.0006600000000000014,0.34,0.1,0.92,1.42,2.67,-1.07
0.0006633333333333348,0.34,0.11,0.94,1.94,1.37,-2.6
0.0006666666666666682,0.36,0.11,0.95,1.95,1.04,-2.96
0.0006700000000000015,0.36,0.11,0.96,1.16,-1.25,-2.76
0.0006733333333333349,0.37,0.12,0.97,0.34,-3.74,-2.82
0.0006766666666666683,0.37,0.11,0.97,-1.82,-5.63,-3.21
0.0006800000000000017,0.38,0.11,0.96,-1.69,-4.53,-2.78
0.000683333333333335,0.38,0.12,0.94,-1.73,-0.46,-2.41
0.0006866666666666684,0.36,0.12,0.92,-0.85,1.57,-2.99
0.0006900000000000018,0.37,0.13,0.93,-0.17,3.94,-3.05
0.0006933333333333352,0.37,0.12,0.94,-0.44,6.64,-2.61
0.0006966666666666686,0.35,0.11,0.95,-1.04,5.62,-3.4
0.0007000000000000019,0.34,0.11,0.95,-1.25,3.04,-4.61
0.0007033333333333353,0.33,0.11,0.94,0.87,2.11,-7.13
0.0007066666666666687,0.31,0.1,0.92,3.18,-2.53,-7.95
0.0007100000000000021,0.34,0.09,0.91,5.57,-1.76,-8.87
0.0007133333333333355,0.37,0.11,0.91,7.94,1.62,-5.37
0.0007166666666666688,0.39,0.13,0.93,7.27,9.02,-3.18
0.0007200000000000022,0.34,0.12,0.95,5.08,5.31,-6.6
0.0007233333333333356,0.33,0.12,0.94,4.67,4.17,-7.89
0.000726666666666669,0.35,0.12,0.95,2.47,3.42,-9.16
0.0007300000000000023,0.35,0.11,0.97,2.17,2.44,-10.09
0.0007333333333333357,0.35,0.12,0.96,-0.32,3.27,-10.58
0.0007366666666666691,0.35,0.13,0.97,-0.87,1.01,-11.83
0.0007400000000000025,0.35,0.13,0.96,-1.53,1.8,-12.18
0.0007433333333333359,0.36,0.12,0.93,-1.48,4.14,-11.28
0.0007466666666666692,0.36,0.12,0.92,0.29,2.38,-10.23
0.0007500000000000026,0.36,0.1,0.91,3.4,0.66,-7.51
0.000753333333333336,0.36,0.09,0.89,6.03,-2.41,-4.17
0.0007566666666666694,0.36,0.09,0.89,7.86,-9.08,-2.49
0.0007600000000000028,0.3,0.11,0.91,7.66,-15.86,-4.44
0.0007633333333333361,0.32,0.12,0.91,8.67,-13.53,-7.4
0.0007666666666666695,0.34,0.14,0.93,8.4,-7.97,-10.52
0.0007700000000000029,0.38,0.16,0.95,6.92,1.28,-11.68
0.0007733333333333363,0.42,0.16,0.97,5.02,7.11,-10.06
0.0007766666666666696,0.41,0.16,0.97,3.04,9.04,-9.63
0.000780000000000003,0.42,0.16,0.98,1.71,11.15,-7.95
0.0007833333333333364,0.4,0.16,0.98,1.62,9.01,-6.23
0.0007866666666666698,0.37,0.16,0.97,2.85,3.76,-6.67
0.0007900000000000032,0.38,0.17,0.97,3.45,1.85,-6.7
0.0007933333333333365,0.36,0.16,0.97,3.92,1.91,-7.57
0.0007966666666666699,0.38,0.15,0.98,4.41,3.16,-6.38
0.0008000000000000033,0.38,0.16,0.97,3.88,3.16,-5.68
0.0008033333333333367,0.39,0.16,0.99,2.7,3.88,-3.92
0.00080666666666667,0.38,0.16,1.01,0.14,0.18,-2.98
0.0008100000000000034,0.37,0.17,1.01,-1.24,-1.74,-3.45
0.0008133333333333368,0.37,0.16,0.98,-1.56,-0.64,-3.79
0.0008166666666666702,0.35,0.16,0.97,-0.02,1.02,-5.07
0.0008200000000000036,0.35,0.15,0.97,0.58,1.79,-6.67
0.0008233333333333369,0.37,0.15,0.97,1.18,3.63,-5.45
0.0008266666666666703,0.38,0.17,0.96,0.49,6.55,-4.2
0.0008300000000000037,0.39,0.16,0.97,0.29,8.9,-1.5
0.0008333333333333371,0.37,0.16,0.96,0.9,4.41,-0.21
0.0008366666666666705,0.37,0.15,0.96,0.34,3.44,1.15
0.0008400000000000038,0.36,0.15,0.96,-8.52,-8.58,-0.9
0.0008433333333333372,0.39,0.14,0.88,0.76,1.25,4.66
0.0008466666666666706,0.27,0.13,0.93,1.02,-6.95,-0.17
0.000850000000000004,0.33,0.14,0.94,2.31,-6.89,-0.43
0.0008533333333333373,0.36,0.14,0.94,2.81,-1.28,2.35
0.0008566666666666707,0.37,0.13,0.96,1.21,0.14,5.91
0.0008600000000000041,0.39,0.12,0.96,-0.29,1.53,10.52
0.0008633333333333375,0.37,0.13,0.94,-2.14,2.82,16.24
0.0008666666666666709,0.33,0.14,0.93,1.22,0.81,15.02
0.0008700000000000042,0.3,0.16,0.9,8.05,-25.34,-3.13
0.0008733333333333376,0.22,0.17,0.9,16.21,-5.89,3.02
0.000876666666666671,0.38,0.15,0.95,9.34,-0.66,-1.53
0.0008800000000000044,0.42,0.17,0.95,9.42,15.69,2.08
0.0008833333333333377,0.36,0.19,0.98,6.78,10.75,0.31
0.0008866666666666711,0.39,0.19,0.99,5.31,10.0,2.0
0.0008900000000000045,0.37,0.19,1.01,1.88,1.66,1.28
0.0008933333333333379,0.39,0.19,0.99,2.03,-0.85,4.32
0.0008966666666666713,0.38,0.19,0.96,3.3,-5.91,5.11
0.0009000000000000046,0.38,0.18,0.95,4.35,-5.83,5.91
0.000903333333333338,0.35,0.18,0.96,5.51,-5.08,4.64
0.0009066666666666714,0.36,0.17,0.91,-3.25,3.16,-0.27
0.0009100000000000048,0.32,0.19,1.07,-6.17,-8.9,7.48
0.0009133333333333382,0.33,0.27,0.91,3.95,10.96,8.46
0.0009166666666666715,0.29,0.18,0.94,3.13,-9.25,-5.24
0.0009200000000000049,0.41,0.19,0.88,4.85,-8.38,-3.53
0.0009233333333333383,0.42,0.2,0.92,2.5,-2.56,1.02
0.0009266666666666717,0.37,0.18,0.92,1.73,3.68,1.5
0.000930000000000005,0.36,0.18,0.79,6.34,11.54,6.58
0.0009333333333333384,0.33,0.19,0.86,3.98,6.26,2.72
0.0009366666666666718,0.3,0.17,0.88,-1.57,2.02,-1.16
0.0009400000000000052,0.33,0.19,0.89,5.6,7.31,-0.49
0.0009433333333333386,0.34,0.19,0.95,3.91,10.06,-0.09
0.0009466666666666719,0.31,0.17,0.97,1.82,6.18,-1.89
0.0009500000000000053,0.29,0.16,1.01,-3.89,-1.24,-6.99
0.0009533333333333387,0.31,0.17,0.97,-2.15,0.89,-6.93
0.0009566666666666721,0.32,0.18,0.96,-3.65,1.04,-8.26
0.0009600000000000054,0.33,0.19,0.95,-2.11,-0.98,-8.47
0.0009633333333333388,0.35,0.2,0.95,-0.58,0.67,-6.98
0.0009666666666666722,0.33,0.18,0.96,-3.66,11.97,0.56
0.0009700000000000056,0.21,0.2,1.04,-10.53,-2.2,-7.07
0.000973333333333339,0.42,0.2,0.92,-1.57,-4.85,-5.57
0.0009766666666666723,0.48,0.2,0.91,8.92,10.56,4.93
0.0009800000000000056,0.29,0.18,1.0,-4.63,-1.63,-2.78
0.0009833333333333389,0.31,0.18,0.95,0.29,1.5,-1.66
0.0009866666666666721,0.32,0.19,0.96,1.1,3.39,-1.4
0.0009900000000000054,0.32,0.18,0.96,4.15,4.96,-0.89
0.0009933333333333387,0.31,0.19,0.95,3.48,4.0,-3.45
0.000996666666666672,0.31,0.19,0.94,4.92,5.3,-3.34
0.0010000000000000052,0.3,0.18,0.95,6.5,6.43,-3.86
0.0010033333333333385,0.31,0.18,0.96,4.0,3.89,-8.5
0.0010066666666666718,0.3,0.18,0.94,3.13,8.84,-7.51
0.001010000000000005,0.3,0.19,0.93,-2.73,2.05,-10.73
0.0010133333333333383,0.29,0.21,0.96,3.4,2.6,-10.2
0.0010166666666666716,0.31,0.2,0.97,3.6,-3.13,-11.6
0.0010200000000000048,0.4,0.2,0.98,1.79,1.91,-6.4
0.0010233333333333381,0.36,0.19,0.98,0.67,0.44,-4.5
0.0010266666666666714,0.34,0.19,0.98,0.4,-6.55,-4.85
0.0010300000000000047,0.32,0.2,0.96,0.17,-11.19,-6.34
0.001033333333333338,0.31,0.19,0.93,1.83,-10.46,-8.43
0.0010366666666666712,0.33,0.2,0.93,4.31,-4.5,-8.66
0.0010400000000000045,0.34,0.2,0.93,6.05,0.35,-8.37
0.0010433333333333377,0.38,0.2,0.93,7.56,8.31,-5.07
0.001046666666666671,0.39,0.2,0.97,5.69,8.61,-2.09
0.0010500000000000043,0.38,0.2,0.98,3.63,6.64,0.52
0.0010533333333333375,0.36,0.2,0.98,2.11,1.57,1.33
0.0010566666666666708,0.35,0.2,0.98,1.36,-1.76,1.88
0.001060000000000004,0.33,0.2,0.95,4.03,-1.73,2.64
0.0010633333333333374,0.34,0.2,0.95,4.26,-0.99,0.84
0.0010666666666666706,0.36,0.17,0.89,-1.22,-1.65,-0.81
0.0010700000000000039,0.37,0.2,0.9,2.87,12.5,4.17
0.0010733333333333372,0.3,0.21,0.96,2.95,8.49,2.43
0.0010766666666666704,0.31,0.19,0.98,1.89,1.97,0.7
0.0010800000000000037,0.32,0.2,0.96,2.0,3.3,0.96
0.001083333333333337,0.33,0.21,0.96,2.03,5.76,1.97
0.0010866666666666702,0.35,0.22,0.96,2.26,8.46,3.19
0.0010900000000000035,0.32,0.21,0.96,2.61,8.43,2.58
0.0010933333333333368,0.3,0.21,0.94,-0.52,10.87,1.48
0.00109666666666667,0.31,0.19,0.94,0.55,18.27,2.5
0.0011000000000000033,0.3,0.17,0.92,15.66,10.87,2.84
0.0011033333333333366,0.28,0.19,0.99,1.86,-6.55,-11.3
0.0011066666666666699,0.36,0.18,0.97,9.11,10.5,-1.4
0.0011100000000000031,0.24,0.16,0.96,4.03,9.21,-0.66
0.0011133333333333364,0.26,0.21,0.96,2.53,-1.3,-4.58
0.0011166666666666697,0.31,0.2,0.96,2.03,-2.75,-4.03
0.001120000000000003,0.3,0.2,0.96,1.91,-6.61,-3.69
0.0011233333333333362,0.3,0.2,0.96,2.53,-1.69,-2.37
0.0011266666666666695,0.3,0.21,0.97,1.57,-1.44,-1.36
0.0011300000000000027,0.31,0.21,0.97,0.56,0.56,-0.89
0.001133333333333336,0.3,0.2,0.96,-0.46,5.24,0.89
0.0011366666666666693,0.29,0.21,0.96,0.98,5.16,-0.32
0.0011400000000000026,0.29,0.21,0.95,3.51,4.08,-0.21
0.0011433333333333358,0.29,0.22,0.94,5.59,4.09,0.34
0.001146666666666669,0.3,0.22,0.95,5.34,2.55,1.98
0.0011500000000000024,0.29,0.23,0.97,4.0,0.18,2.08
0.0011533333333333356,0.28,0.22,0.99,2.41,-2.78,1.02
0.001156666666666669,0.28,0.22,0.97,1.3,-0.05,0.63
0.0011600000000000022,0.28,0.22,0.96,1.57,1.89,-0.23
0.0011633333333333354,0.27,0.23,0.91,2.85,3.5,-2.63
0.0011666666666666687,0.27,0.21,0.92,4.05,9.91,-2.37
0.001170000000000002,0.26,0.23,0.94,0.27,5.6,-5.42
0.0011733333333333353,0.29,0.24,0.97,3.6,9.13,-4.2
0.0011766666666666685,0.3,0.22,0.96,2.79,8.63,-2.52
0.0011800000000000018,0.3,0.22,1.0,-0.38,3.57,-3.18
0.001183333333333335,0.32,0.22,0.98,-0.87,7.82,0.0
0.0011866666666666683,0.27,0.22,0.98,-3.51,1.57,-1.98
0.0011900000000000016,0.28,0.21,0.95,-2.7,0.26,-1.94
0.0011933333333333349,0.3,0.21,0.93,1.18,4.34,0.9
0.0011966666666666681,0.28,0.2,0.91,2.49,3.44,0.26
0.0012000000000000014,0.29,0.21,0.93,3.16,5.25,1.08
0.0012033333333333347,0.27,0.21,0.97,-0.26,-10.66,-8.29
0.001206666666666668,0.26,0.18,0.94,4.08,-3.71,-2.55
0.0012100000000000012,0.22,0.2,0.99,1.88,-3.01,-2.92
0.0012133333333333345,0.28,0.21,0.98,0.87,2.75,-0.72
0.0012166666666666678,0.28,0.22,0.98,0.27,4.26,-0.55
0.001220000000000001,0.23,0.22,0.97,0.05,3.53,-2.6
0.0012233333333333343,0.27,0.23,0.97,0.46,4.63,-2.9
0.0012266666666666676,0.32,0.24,0.96,1.19,11.05,0.7
0.0012300000000000008,0.26,0.25,0.98,-6.78,6.21,-2.7
