time,accl_x,accl_y,accl_z,gyro_x,gyro_y,gyro_z
0.0,0.13,0.06,0.99,-1.71,2.4,2.44
3.3333333333333333e-06,0.12,0.06,1.0,-1.44,-0.63,0.96
6.666666666666667e-06,0.15,0.06,0.99,-0.41,-0.32,1.36
9.999999999999999e-06,0.14,0.07,0.99,0.41,-1.36,0.7
1.3333333333333333e-05,0.15,0.07,1.0,1.28,-0.75,0.69
1.6666666666666667e-05,0.14,0.06,1.0,1.28,0.06,0.08
2e-05,0.16,0.06,1.0,1.11,1.66,0.35
2.3333333333333336e-05,0.14,0.05,1.02,1.36,0.67,-0.09
2.666666666666667e-05,0.15,0.07,1.02,0.38,1.27,-0.53
3.0000000000000004e-05,0.15,0.07,1.01,0.63,-0.35,-0.63
3.3333333333333335e-05,0.15,0.07,0.99,0.44,1.82,0.55
3.6666666666666666e-05,0.14,0.07,1.0,1.24,-0.61,-0.27
3.9999999999999996e-05,0.15,0.06,0.99,2.47,-0.6,0.06
4.333333333333333e-05,0.15,0.07,1.0,2.85,-1.56,0.47
4.666666666666666e-05,0.13,0.07,1.02,2.21,-3.59,-0.41
4.999999999999999e-05,0.13,0.07,1.03,0.12,-3.51,-2.02
5.333333333333332e-05,0.15,0.07,1.03,-0.63,0.46,-2.4
5.666666666666665e-05,0.14,0.06,1.01,-0.66,2.03,-3.36
5.999999999999998e-05,0.15,0.07,0.99,0.37,1.22,-3.73
6.333333333333332e-05,0.19,0.07,0.99,0.58,2.24,-2.31
6.666666666666666e-05,0.18,0.07,1.02,1.19,-0.17,-0.85
7e-05,0.17,0.08,1.02,1.15,1.56,0.64
7.333333333333333e-05,0.15,0.06,1.05,0.95,-0.56,-0.4
7.666666666666667e-05,0.14,0.07,1.04,-0.05,-2.73,-1.33
8e-05,0.16,0.06,1.02,-0.85,-3.36,-1.21
8.333333333333334e-05,0.16,0.06,1.02,-1.22,-1.3,-1.15
8.666666666666668e-05,0.15,0.06,1.02,-0.75,0.58,-1.8
9.000000000000002e-05,0.17,0.07,1.01,-0.61,4.61,-0.12
9.333333333333336e-05,0.16,0.07,1.0,0.41,3.5,0.23
9.66666666666667e-05,0.16,0.07,1.02,0.32,1.53,0.69
0.00010000000000000003,0.14,0.06,1.04,0.24,-2.6,-0.35
0.00010333333333333337,0.16,0.06,1.02,-1.16,-1.88,0.02
0.00010666666666666671,0.15,0.07,1.02,-2.08,-1.98,-0.7
0.00011000000000000004,0.16,0.07,1.0,-2.52,-0.66,-0.32
0.00011333333333333338,0.15,0.07,1.0,-2.11,-1.22,-1.04
0.00011666666666666672,0.16,0.06,0.99,-2.89,0.29,0.02
0.00012000000000000006,0.18,0.08,0.99,-2.55,2.2,2.46
0.0001233333333333334,0.16,0.07,0.99,-4.03,2.27,4.05
0.00012666666666666672,0.16,0.06,1.0,-3.42,3.5,3.73
0.00013000000000000004,0.14,0.05,1.02,-2.99,0.32,1.31
0.00013333333333333337,0.13,0.06,1.03,-5.1,-0.92,-0.43
0.0001366666666666667,0.15,0.08,1.0,-5.1,1.71,0.09
0.00014000000000000001,0.19,0.06,1.02,-6.35,1.97,0.67
0.00014333333333333334,0.14,0.08,0.99,-5.21,-0.66,0.18
0.00014666666666666666,0.18,0.06,0.98,-3.05,-1.44,1.79
0.00015,0.17,0.05,1.01,-1.66,0.29,3.04
0.0001533333333333333,0.15,0.04,1.02,-0.72,-0.82,2.55
0.00015666666666666663,0.12,0.05,1.02,-1.59,-0.96,1.57
0.00015999999999999996,0.14,0.05,1.02,-1.65,-0.31,0.32
0.00016333333333333328,0.15,0.05,1.01,-2.37,1.42,0.95
0.0001666666666666666,0.14,0.06,1.01,-3.36,3.08,0.98
0.00016999999999999993,0.14,0.05,1.02,-2.0,3.02,0.02
0.00017333333333333325,0.15,0.04,0.99,-0.17,0.69,-0.47
0.00017666666666666658,0.16,0.04,1.01,0.43,-0.43,-0.08
0.0001799999999999999,0.16,0.06,1.02,-0.43,-0.78,0.21
0.00018333333333333323,0.15,0.04,1.02,-0.41,-1.28,-0.58
0.00018666666666666655,0.15,0.06,1.01,-0.67,-0.05,0.09
0.00018999999999999987,0.16,0.05,1.0,0.58,1.37,0.82
0.0001933333333333332,0.13,0.05,1.02,0.67,-1.77,-0.06
0.00019666666666666652,0.14,0.05,1.01,1.07,-2.38,-0.17
0.00019999999999999985,0.14,0.06,1.01,0.64,-1.91,-0.38
0.00020333333333333317,0.14,0.05,1.01,0.67,-0.75,-0.81
0.0002066666666666665,0.15,0.05,1.01,0.41,-1.79,-1.15
0.00020999999999999982,0.15,0.06,1.01,0.12,-0.6,-1.25
0.00021333333333333314,0.15,0.06,1.02,-0.11,-0.5,-1.5
0.00021666666666666647,0.17,0.06,1.02,-0.6,-0.66,-0.73
0.0002199999999999998,0.16,0.05,1.01,-0.38,-1.16,0.24
0.00022333333333333311,0.14,0.05,1.01,0.46,-2.6,0.14
0.00022666666666666644,0.14,0.05,1.0,1.71,-2.93,-1.11
0.00022999999999999976,0.15,0.06,1.0,2.24,-3.51,-1.86
0.0002333333333333331,0.14,0.07,1.0,2.06,-0.37,-1.47
0.0002366666666666664,0.14,0.06,1.03,1.37,1.24,-2.14
0.00023999999999999974,0.17,0.06,1.02,1.01,0.87,-1.27
0.00024333333333333306,0.17,0.05,1.03,-0.17,0.18,-0.52
0.0002466666666666664,0.17,0.06,1.01,-0.79,-1.47,0.0
0.00024999999999999973,0.17,0.06,1.0,0.06,-3.21,0.9
0.00025333333333333306,0.17,0.06,1.01,1.57,-3.48,0.76
0.0002566666666666664,0.14,0.06,0.99,3.33,-3.16,-0.2
0.0002599999999999997,0.12,0.06,1.0,4.47,-4.37,-2.12
0.00026333333333333303,0.14,0.06,1.01,3.02,-2.05,-1.57
0.00026666666666666635,0.14,0.06,1.02,2.09,-0.96,-1.69
0.0002699999999999997,0.14,0.06,1.02,0.85,-1.04,-2.11
0.000273333333333333,0.15,0.06,1.02,-0.7,0.49,-1.91
0.0002766666666666663,0.17,0.07,1.01,-1.33,0.85,-1.11
0.00027999999999999965,0.16,0.06,1.0,-0.37,-1.1,-1.22
0.000283333333333333,0.17,0.06,0.99,0.98,0.32,-0.08
0.0002866666666666663,0.18,0.06,1.01,1.98,0.06,1.19
0.0002899999999999996,0.17,0.06,1.0,2.41,-3.98,1.6
0.00029333333333333295,0.16,0.06,0.99,2.82,-5.59,2.08
0.00029666666666666627,0.14,0.06,1.02,2.37,-5.65,1.79
0.0002999999999999996,0.12,0.06,1.02,2.05,-6.37,0.32
0.0003033333333333329,0.12,0.06,1.05,0.27,-5.36,-1.02
0.00030666666666666624,0.13,0.06,1.04,-2.05,-4.2,-1.88
0.00030999999999999957,0.17,0.07,1.03,-3.27,-3.11,-1.89
0.0003133333333333329,0.16,0.07,1.03,-2.76,-1.56,-2.66
0.0003166666666666662,0.16,0.07,1.0,-1.16,-1.15,-4.11
0.00031999999999999954,0.19,0.07,1.0,-0.34,0.53,-3.37
0.00032333333333333286,0.18,0.07,1.02,0.2,-2.34,-3.59
0.0003266666666666662,0.2,0.07,1.0,-0.03,-2.26,-1.66
0.0003299999999999995,0.2,0.07,1.0,-0.7,-3.88,-0.53
0.00033333333333333283,0.18,0.06,1.01,-0.78,-4.52,0.63
0.00033666666666666616,0.18,0.06,1.01,-1.05,-4.17,0.5
0.0003399999999999995,0.18,0.06,1.0,-0.76,-2.53,0.79
0.0003433333333333328,0.16,0.06,1.0,-0.43,-0.49,-0.55
0.00034666666666666613,0.17,0.06,1.0,0.34,0.32,-0.98
0.00034999999999999945,0.16,0.06,1.01,0.81,0.38,-1.77
0.0003533333333333328,0.18,0.06,1.01,-0.2,1.08,-0.95
0.0003566666666666661,0.18,0.06,1.01,0.63,0.35,-1.19
0.0003599999999999994,0.19,0.07,1.01,1.24,1.01,0.06
0.00036333333333333275,0.18,0.07,1.0,1.48,2.85,1.31
0.0003666666666666661,0.16,0.07,1.01,2.17,2.89,1.94
0.0003699999999999994,0.2,0.07,1.01,1.92,7.97,4.26
0.0003733333333333327,0.21,0.08,0.99,1.53,11.25,4.79
0.00037666666666666605,0.2,0.07,0.98,2.81,11.34,7.53
0.00037999999999999937,0.19,0.07,0.99,6.06,14.41,9.65
0.0003833333333333327,0.17,0.07,0.99,4.41,13.27,10.37
0.000386666666666666,0.15,0.07,1.02,2.53,12.09,10.08
0.00038999999999999934,0.13,0.07,1.02,2.29,12.73,9.6
0.00039333333333333267,0.13,0.06,1.05,1.22,8.99,6.69
0.000396666666666666,0.12,0.06,1.07,-1.02,2.05,4.2
0.0003999999999999993,0.12,0.07,1.06,-3.97,-0.46,2.31
0.00040333333333333264,0.11,0.08,1.06,-6.06,-5.69,-0.43
0.00040666666666666596,0.13,0.07,1.03,-5.3,-5.68,-0.6
0.0004099999999999993,0.15,0.07,1.01,-3.27,-6.08,-1.19
0.0004133333333333326,0.14,0.07,1.0,-2.58,-7.16,-2.7
0.00041666666666666593,0.14,0.07,1.01,-1.47,-6.63,-3.91
0.00041999999999999926,0.14,0.07,1.02,-0.78,-7.76,-4.98
0.0004233333333333326,0.16,0.07,1.02,-1.22,-6.87,-4.72
0.0004266666666666659,0.15,0.07,1.02,-0.18,-7.01,-4.46
0.00042999999999999923,0.15,0.07,1.01,0.06,-8.76,-5.34
0.00043333333333333255,0.18,0.07,1.01,1.71,-4.14,-2.52
0.0004366666666666659,0.24,0.11,1.05,1.02,-1.91,-0.15
0.0004399999999999992,0.16,0.08,0.99,0.84,-2.08,-0.96
0.0004433333333333325,0.15,0.07,1.02,-0.37,0.66,-0.72
0.00044666666666666585,0.16,0.07,1.02,0.38,3.92,-0.14
0.0004499999999999992,0.18,0.07,1.02,1.86,8.96,1.89
0.0004533333333333325,0.18,0.06,1.0,1.85,8.53,1.5
0.0004566666666666658,0.17,0.06,1.01,1.27,5.37,0.63
0.00045999999999999915,0.18,0.07,0.99,1.68,5.82,1.44
0.00046333333333333247,0.16,0.06,0.99,1.45,-0.29,0.2
0.0004666666666666658,0.17,0.07,1.0,2.14,0.29,1.25
0.0004699999999999991,0.15,0.07,1.0,1.65,-2.9,0.64
0.00047333333333333244,0.14,0.07,1.02,0.85,-2.63,-0.17
0.00047666666666666577,0.14,0.07,1.02,-0.24,-2.69,-0.52
0.0004799999999999991,0.14,0.08,1.02,-1.85,-4.08,-0.61
0.0004833333333333324,0.14,0.07,1.01,-0.61,-1.76,0.02
0.00048666666666666574,0.13,0.08,1.01,-0.34,1.08,-0.52
0.0004899999999999991,0.13,0.07,1.01,-0.02,-0.89,-1.92
0.0004933333333333325,0.16,0.07,1.02,-0.11,2.24,-0.87
0.0004966666666666659,0.14,0.07,1.02,-0.58,1.01,-1.83
0.0004999999999999993,0.15,0.07,1.02,-0.24,0.21,-2.64
0.0005033333333333326,0.16,0.07,1.03,-0.9,-0.7,-2.92
0.000506666666666666,0.18,0.07,1.01,-1.54,0.96,-2.63
0.0005099999999999994,0.16,0.06,1.02,-2.4,0.66,-1.95
0.0005133333333333328,0.18,0.06,1.02,-2.09,-0.2,-1.18
0.0005166666666666661,0.18,0.07,1.01,-2.03,1.28,0.24
0.0005199999999999995,0.18,0.07,1.01,-2.82,-0.41,1.18
0.0005233333333333329,0.18,0.07,1.02,-2.78,-1.83,1.28
0.0005266666666666663,0.17,0.06,1.01,-1.94,-2.72,0.9
0.0005299999999999997,0.15,0.06,1.02,-1.6,-2.69,0.84
0.000533333333333333,0.13,0.05,1.0,-2.23,-3.21,-0.29
0.0005366666666666664,0.13,0.05,1.02,-1.85,-6.35,-3.08
0.0005399999999999998,0.14,0.06,1.01,-0.92,-4.96,-3.69
0.0005433333333333332,0.15,0.06,0.99,-1.3,-3.36,-3.48
0.0005466666666666665,0.16,0.06,1.0,-0.44,-3.31,-2.47
0.0005499999999999999,0.14,0.06,1.0,-0.61,-3.02,-1.92
0.0005533333333333333,0.17,0.07,1.0,-1.48,-0.75,-0.82
0.0005566666666666667,0.17,0.06,1.0,-0.4,1.36,0.32
0.0005600000000000001,0.14,0.06,1.0,0.37,-0.55,-1.3
0.0005633333333333334,0.15,0.06,1.01,1.07,2.41,-1.27
0.0005666666666666668,0.17,0.06,1.02,0.96,4.37,-1.04
0.0005700000000000002,0.18,0.06,1.01,0.0,3.6,-1.31
0.0005733333333333336,0.21,0.06,1.01,0.41,4.14,0.21
0.000576666666666667,0.2,0.07,1.0,1.79,2.84,1.42
0.0005800000000000003,0.2,0.07,0.99,2.75,4.34,3.34
0.0005833333333333337,0.19,0.06,0.98,3.54,2.9,4.64
0.0005866666666666671,0.19,0.05,0.98,5.68,4.24,5.88
0.0005900000000000005,0.18,0.06,0.97,6.89,3.15,6.72
0.0005933333333333338,0.16,0.05,0.97,8.41,2.81,6.84
0.0005966666666666672,0.15,0.07,0.98,9.27,5.47,8.0
0.0006000000000000006,0.15,0.07,1.01,9.82,8.02,7.51
0.000603333333333334,0.13,0.08,1.04,6.61,11.83,6.79
0.0006066666666666674,0.12,0.09,1.06,3.39,9.85,5.69
0.0006100000000000007,0.14,0.07,1.06,2.12,7.65,5.1
0.0006133333333333341,0.13,0.08,1.06,0.09,6.76,5.34
0.0006166666666666675,0.14,0.07,1.06,-1.15,3.71,4.78
0.0006200000000000009,0.12,0.08,1.04,-2.64,-2.35,2.61
0.0006233333333333342,0.15,0.08,1.01,-3.21,-0.89,3.62
0.0006266666666666676,0.15,0.08,1.01,-1.22,-3.25,3.36
0.000630000000000001,0.15,0.08,0.99,1.1,-2.26,4.56
0.0006333333333333344,0.13,0.08,1.0,2.34,-4.84,3.82
0.0006366666666666678,0.13,0.08,1.01,0.21,-4.4,2.99
0.0006400000000000011,0.15,0.07,1.04,-2.44,-2.46,3.27
0.0006433333333333345,0.14,0.07,1.02,-4.73,-2.38,2.56
0.0006466666666666679,0.14,0.07,1.02,-5.25,-2.41,3.53
0.0006500000000000013,0.14,0.07,1.0,-0.95,-0.32,5.22
0.0006533333333333346,0.13,0.07,1.0,0.92,-3.48,5.83
0.000656666666666668,0.12,0.08,1.0,-0.63,-2.85,5.94
0.0006600000000000014,0.1,0.08,1.02,0.38,-0.89,3.89
0.0006633333333333348,0.12,0.08,1.03,-0.11,7.25,3.69
0.0006666666666666682,0.06,0.07,1.04,-1.01,0.89,-4.11
0.0006700000000000015,0.12,0.08,1.02,-2.64,-1.4,-6.4
0.0006733333333333349,0.14,0.07,1.04,-2.85,-6.87,-6.92
0.0006766666666666683,0.19,0.08,1.02,-5.66,-6.79,-5.15
0.0006800000000000017,0.17,0.08,1.02,-5.89,-9.73,-4.37
0.000683333333333335,0.18,0.07,1.01,-5.51,-8.05,-2.58
0.0006866666666666684,0.18,0.07,0.98,-3.92,-7.69,-2.5
0.0006900000000000018,0.2,0.07,0.97,-3.21,-3.5,-1.19
0.0006933333333333352,0.14,0.06,0.95,-1.18,-5.62,-2.73
0.0006966666666666686,0.13,0.05,0.97,1.4,-7.62,-5.37
0.0007000000000000019,0.14,0.06,0.99,2.03,-6.61,-6.9
0.0007033333333333353,0.16,0.06,0.98,1.15,-5.4,-6.23
0.0007066666666666687,0.17,0.07,0.99,1.33,-4.35,-5.02
0.0007100000000000021,0.14,0.06,0.99,2.31,-5.47,-5.83
0.0007133333333333355,0.15,0.06,1.0,3.1,-6.21,-6.96
0.0007166666666666688,0.16,0.07,1.01,2.03,-6.38,-7.73
0.0007200000000000022,0.17,0.08,1.01,0.41,-6.31,-7.91
0.0007233333333333356,0.17,0.07,1.02,1.19,-4.87,-7.05
0.000726666666666669,0.16,0.07,1.0,1.47,-5.85,-7.69
0.0007300000000000023,0.18,0.07,0.99,2.61,-7.45,-7.13
0.0007333333333333357,0.21,0.07,1.0,2.73,-6.64,-5.88
0.0007366666666666691,0.2,0.07,1.0,2.95,-8.03,-5.18
0.0007400000000000025,0.2,0.07,1.03,2.98,-5.66,-3.85
0.0007433333333333359,0.2,0.07,1.03,0.5,-5.92,-2.79
0.0007466666666666692,0.19,0.05,1.01,-0.85,-9.92,-3.68
0.0007500000000000026,0.2,0.07,0.99,0.26,-6.58,-0.98
0.000753333333333336,0.2,0.06,1.0,0.23,-5.44,0.29
0.0007566666666666694,0.16,0.06,1.01,0.38,-5.56,1.04
0.0007600000000000028,0.15,0.05,0.99,1.71,-6.02,1.25
0.0007633333333333361,0.15,0.05,1.0,2.0,-5.25,1.45
0.0007666666666666695,0.12,0.06,0.99,2.93,-8.44,-1.42
0.0007700000000000029,0.14,0.07,0.98,2.67,-5.85,-3.08
0.0007733333333333363,0.15,0.08,0.98,4.78,-3.44,-4.64
0.0007766666666666696,0.15,0.09,0.98,4.81,-2.12,-7.68
0.000780000000000003,0.15,0.1,0.99,5.25,-3.5,-11.04
0.0007833333333333364,0.17,0.1,0.99,5.47,-4.93,-13.31
0.0007866666666666698,0.21,0.11,0.98,7.02,-2.32,-12.18
0.0007900000000000032,0.21,0.11,0.99,6.72,-3.3,-12.21
0.0007933333333333365,0.24,0.11,1.0,6.6,-0.79,-9.48
0.0007966666666666699,0.24,0.11,1.01,6.4,-5.02,-7.4
0.0008000000000000033,0.27,0.12,0.99,5.01,-3.74,-3.79
0.0008033333333333367,0.26,0.12,1.01,5.57,-5.77,-1.73
0.00080666666666667,0.24,0.13,1.0,7.24,-9.36,-1.11
0.0008100000000000034,0.23,0.12,1.0,7.22,-9.89,-0.2
0.0008133333333333368,0.18,0.11,1.02,5.76,-9.04,-2.52
0.0008166666666666702,0.2,0.1,1.03,4.12,-4.47,-2.95
0.0008200000000000036,0.19,0.11,1.02,2.4,-3.39,-4.47
0.0008233333333333369,0.18,0.11,1.01,2.4,-4.67,-6.67
0.0008266666666666703,0.22,0.12,0.99,3.88,-2.43,-6.17
0.0008300000000000037,0.24,0.12,1.0,4.72,-1.37,-4.84
0.0008333333333333371,0.24,0.12,1.02,4.2,-1.85,-4.35
0.0008366666666666705,0.22,0.1,1.05,-2.66,2.63,1.44
0.0008400000000000038,0.18,0.09,1.03,2.24,-4.85,-5.51
0.0008433333333333372,0.21,0.1,1.0,2.0,-5.83,-5.57
0.0008466666666666706,0.22,0.1,1.02,3.01,-11.19,-5.08
0.000850000000000004,0.23,0.12,0.99,1.98,-7.1,-2.15
0.0008533333333333373,0.23,0.12,0.99,0.78,-0.03,-0.63
0.0008566666666666707,0.22,0.11,1.0,1.19,-1.15,-0.47
0.0008600000000000041,0.21,0.11,1.0,0.89,-2.76,-0.72
0.0008633333333333375,0.22,0.12,1.02,0.99,-3.83,-0.96
0.0008666666666666709,0.21,0.12,1.03,0.66,-5.24,-1.1
0.0008700000000000042,0.18,0.11,1.02,0.14,-9.65,-2.99
0.0008733333333333376,0.22,0.1,1.03,-1.15,-6.89,-2.55
0.000876666666666671,0.2,0.12,1.03,-2.85,-7.22,-2.78
0.0008800000000000044,0.22,0.11,0.98,-0.53,-8.27,-3.74
0.0008833333333333377,0.25,0.12,0.96,0.96,-9.05,-3.82
0.0008866666666666711,0.25,0.13,0.97,3.88,-7.56,-3.13
0.0008900000000000045,0.25,0.12,0.97,5.28,-7.8,-0.5
0.0008933333333333379,0.25,0.12,0.96,6.63,-11.44,1.22
0.0008966666666666713,0.23,0.12,0.97,7.98,-16.23,0.4
0.0009000000000000046,0.21,0.12,0.97,6.09,-18.11,-0.52
0.000903333333333338,0.23,0.12,1.0,3.53,-9.6,0.23
0.0009066666666666714,0.2,0.11,1.03,0.06,-5.68,-2.31
0.0009100000000000048,0.19,0.13,1.03,-10.67,-0.08,-4.7
0.0009133333333333382,0.2,0.13,0.99,0.52,4.03,-6.4
0.0009166666666666715,0.25,0.13,0.99,0.21,4.11,-6.02
0.0009200000000000049,0.25,0.14,1.01,-1.25,-0.82,-6.18
0.0009233333333333383,0.27,0.13,0.99,-0.09,-2.93,-4.29
0.0009266666666666717,0.28,0.14,1.01,-1.21,-2.73,-1.3
0.000930000000000005,0.25,0.12,1.01,-1.98,-5.28,-1.27
0.0009333333333333384,0.25,0.11,1.01,-4.06,-3.36,-0.08
0.0009366666666666718,0.23,0.1,0.99,-4.23,-2.67,-0.96
0.0009400000000000052,0.22,0.09,0.99,-2.52,-4.78,-4.21
0.0009433333333333386,0.23,0.11,0.97,-3.22,-2.82,-5.15
0.0009466666666666719,0.25,0.12,0.98,-3.11,2.31,-3.82
0.0009500000000000053,0.25,0.12,0.96,-2.24,2.55,-2.82
0.0009533333333333387,0.25,0.12,0.97,1.3,0.37,-2.84
0.0009566666666666721,0.24,0.11,0.97,2.26,-0.34,-3.13
0.0009600000000000054,0.28,0.12,0.99,1.33,0.85,-0.7
0.0009633333333333388,0.25,0.12,0.98,1.34,0.09,0.11
0.0009666666666666722,0.23,0.12,0.96,3.3,0.21,-0.47
0.0009700000000000056,0.24,0.12,0.95,3.44,2.73,0.38
0.000973333333333339,0.24,0.12,0.96,4.14,3.18,0.43
0.0009766666666666723,0.24,0.12,0.95,8.44,2.84,0.78
0.0009800000000000056,0.22,0.13,0.95,3.83,2.46,1.31
0.0009833333333333389,0.28,0.11,0.94,14.43,-4.18,-3.88
0.0009866666666666721,0.24,0.16,1.05,15.37,-2.14,-3.83
