time,accl_x,accl_y,accl_z,gyro_x,gyro_y,gyro_z
0.0,0.08,0.15,0.97,0.08,-4.79,-2.72
3.3333333333333333e-06,0.07,0.16,0.98,-1.1,-11.24,-8.05
6.666666666666667e-06,-0.07,0.13,1.09,-11.53,-20.61,-18.43
9.999999999999999e-06,0.05,0.15,1.04,-4.5,-10.9,-12.66
1.3333333333333333e-05,0.16,0.21,1.02,-3.28,5.59,-0.31
1.6666666666666667e-05,0.12,0.2,1.02,-7.54,1.42,0.12
2e-05,0.1,0.18,1.04,-7.04,0.11,1.73
2.3333333333333336e-05,0.08,0.19,1.02,-7.69,-1.98,1.62
2.666666666666667e-05,0.09,0.17,1.02,-7.27,-0.32,0.69
3.0000000000000004e-05,0.11,0.17,1.0,-7.65,4.96,2.14
3.3333333333333335e-05,0.1,0.17,1.01,-7.02,11.53,5.47
3.6666666666666666e-05,0.08,0.17,0.97,-6.78,9.25,2.64
3.9999999999999996e-05,0.07,0.17,1.01,-2.49,7.5,1.21
4.333333333333333e-05,0.13,0.17,0.98,-2.93,13.62,5.91
4.666666666666666e-05,0.08,0.19,0.97,-1.47,11.86,6.0
4.999999999999999e-05,0.06,0.17,1.03,-4.03,7.69,2.89
5.333333333333332e-05,0.07,0.17,1.06,1.22,4.89,4.29
5.666666666666665e-05,0.08,0.15,1.04,-4.02,5.48,5.74
5.999999999999998e-05,0.07,0.17,1.01,-5.1,3.95,5.36
6.333333333333332e-05,0.05,0.16,1.02,-6.23,2.03,3.73
6.666666666666666e-05,0.05,0.16,1.0,-5.85,1.11,2.53
7e-05,0.04,0.17,0.99,-2.99,1.86,2.24
7.333333333333333e-05,0.03,0.15,1.0,-2.84,1.25,0.76
7.666666666666667e-05,0.05,0.16,1.0,-1.4,1.73,-1.27
8e-05,0.08,0.16,1.0,-2.92,4.29,-0.18
8.333333333333334e-05,0.09,0.16,1.02,-3.89,7.82,0.79
8.666666666666668e-05,0.09,0.16,1.01,-4.03,7.42,2.11
9.000000000000002e-05,0.1,0.16,0.99,-3.98,6.2,3.74
9.333333333333336e-05,0.1,0.16,1.0,-5.18,4.34,5.98
9.66666666666667e-05,0.09,0.16,0.97,-3.56,5.36,8.23
0.00010000000000000003,0.08,0.15,0.98,-4.18,3.73,7.54
0.00010333333333333337,0.04,0.15,0.99,-4.64,1.19,4.15
0.00010666666666666671,0.05,0.15,0.98,-3.07,1.66,4.18
0.00011000000000000004,0.04,0.14,0.98,-3.34,0.43,2.12
0.00011333333333333338,0.04,0.15,0.99,-2.02,0.21,1.11
0.00011666666666666672,0.03,0.15,0.99,-1.34,0.79,1.48
0.00012000000000000006,0.03,0.15,1.0,-0.85,0.06,0.15
0.0001233333333333334,0.05,0.16,1.0,0.24,2.0,-0.52
0.00012666666666666672,0.05,0.16,1.0,0.56,3.85,-0.87
0.00013000000000000004,0.06,0.16,1.01,1.02,5.08,-1.59
0.00013333333333333337,0.06,0.16,1.02,1.16,2.85,-1.24
0.0001366666666666667,0.08,0.16,1.04,-0.78,0.93,0.17
0.00014000000000000001,0.09,0.16,1.03,-1.5,1.5,1.74
0.00014333333333333334,0.05,0.16,1.03,-2.85,1.3,1.45
0.00014666666666666666,0.03,0.15,1.02,-3.33,0.18,-0.27
0.00015,0.05,0.15,1.01,-3.15,2.09,-0.7
0.0001533333333333333,0.07,0.15,1.01,-2.29,2.4,0.03
0.00015666666666666663,0.05,0.14,1.01,-1.71,-0.14,-0.37
0.00015999999999999996,0.06,0.14,1.01,-2.09,-2.72,0.43
0.00016333333333333328,0.05,0.14,0.99,-1.71,-3.01,0.27
0.0001666666666666666,0.07,0.15,1.0,-1.01,-1.62,2.32
0.00016999999999999993,0.05,0.14,0.98,-0.09,-1.69,2.43
0.00017333333333333325,0.03,0.14,0.98,1.62,-1.59,0.66
0.00017666666666666658,0.04,0.14,1.0,1.5,-0.26,-0.46
0.0001799999999999999,0.06,0.16,1.01,1.16,3.19,-0.14
0.00018333333333333323,0.06,0.14,1.04,-0.08,3.8,-0.46
0.00018666666666666655,0.07,0.15,1.05,-2.23,3.53,-0.18
0.00018999999999999987,0.07,0.16,1.02,-2.03,0.26,-0.08
0.0001933333333333332,0.08,0.16,1.01,-1.01,-1.13,1.19
0.00019666666666666652,0.09,0.15,1.03,-2.26,-4.75,2.6
0.00019999999999999985,0.05,0.15,1.02,-2.89,-7.97,3.3
0.00020333333333333317,0.05,0.15,1.01,-3.56,-6.02,3.45
0.0002066666666666665,0.05,0.14,1.02,-4.5,-3.97,1.42
0.00020999999999999982,0.06,0.14,0.98,-2.84,0.75,1.94
0.00021333333333333314,0.07,0.14,0.99,-1.1,3.53,1.69
0.00021666666666666647,0.05,0.14,0.99,-1.27,1.83,-0.11
0.0002199999999999998,0.05,0.15,1.01,0.06,0.93,-0.43
0.00022333333333333311,0.05,0.15,1.03,-0.32,-1.8,-0.93
0.00022666666666666644,0.04,0.15,1.04,-1.53,-6.21,-2.29
0.00022999999999999976,0.04,0.15,1.06,-5.56,-13.51,-5.77
0.0002333333333333331,0.06,0.15,1.06,-7.53,-14.34,-5.42
0.0002366666666666664,0.04,0.14,1.04,-6.84,-16.0,-7.27
0.00023999999999999974,0.09,0.14,1.0,-5.69,-13.15,-5.28
0.00024333333333333306,0.07,0.16,1.0,-2.72,-12.53,-6.08
0.0002466666666666664,0.09,0.14,0.97,-0.06,-7.04,-5.21
0.00024999999999999973,0.12,0.14,0.99,-0.52,-1.63,-3.18
0.00025333333333333306,0.1,0.14,1.0,-2.12,0.38,0.09
0.0002566666666666664,0.08,0.13,0.99,-0.92,1.45,1.05
0.0002599999999999997,0.08,0.13,1.01,-0.63,0.2,2.17
0.00026333333333333303,0.06,0.13,1.02,-0.76,-2.87,1.16
0.00026666666666666635,0.06,0.12,1.02,-1.82,-3.48,0.18
0.0002699999999999997,0.07,0.13,1.01,-2.37,-1.98,-1.47
0.000273333333333333,0.07,0.13,1.02,-1.91,0.7,-2.41
0.0002766666666666663,0.11,0.13,1.0,-0.76,3.62,0.61
0.00027999999999999965,0.09,0.14,1.0,-0.08,2.24,1.79
0.000283333333333333,0.1,0.15,0.99,0.47,2.6,5.66
0.0002866666666666663,0.06,0.12,1.02,2.93,11.88,12.92
0.0002899999999999996,0.1,0.15,1.05,3.71,18.7,15.42
0.00029333333333333295,0.01,0.14,1.08,-2.09,3.76,6.85
0.00029666666666666627,-0.01,0.13,1.07,-0.05,1.45,11.89
0.0002999999999999996,0.05,0.15,1.04,-1.28,-0.41,9.02
0.0003033333333333329,0.13,0.11,0.93,-14.21,-11.07,-1.3
0.00030666666666666624,0.05,0.12,0.95,-2.24,4.53,3.51
0.00030999999999999957,0.04,0.1,0.95,-2.08,2.21,1.4
0.0003133333333333329,0.07,0.11,0.96,-1.65,1.73,-2.17
0.0003166666666666662,0.07,0.1,0.99,0.0,4.6,-4.02
0.00031999999999999954,0.06,0.11,1.01,-1.34,3.5,-5.34
0.00032333333333333286,0.07,0.11,1.02,-1.5,2.78,-5.48
0.0003266666666666662,0.11,0.11,1.03,-1.88,1.89,-2.89
0.0003299999999999995,0.1,0.11,1.02,-1.31,-1.66,-0.89
0.00033333333333333283,0.1,0.12,1.01,-1.77,-4.0,1.25
0.00033666666666666616,0.08,0.11,1.03,-1.57,-5.65,1.4
0.0003399999999999995,0.06,0.11,1.02,-1.54,-6.31,0.35
0.0003433333333333328,0.07,0.1,1.01,-1.02,-4.81,-1.07
0.00034666666666666613,0.05,0.1,1.02,-1.36,-1.59,-3.79
0.00034999999999999945,0.1,0.12,1.05,-1.28,5.36,-3.31
0.0003533333333333328,0.1,0.13,1.06,-2.43,8.73,-3.59
0.0003566666666666661,0.11,0.13,1.06,-4.17,9.88,-2.35
0.0003599999999999994,0.12,0.13,1.05,-5.65,7.19,0.0
0.00036333333333333275,0.12,0.13,1.02,-5.85,2.12,2.72
0.0003666666666666661,0.11,0.13,1.0,-5.3,-2.49,5.83
0.0003699999999999994,0.08,0.13,0.98,-3.77,-5.73,7.02
0.0003733333333333327,0.06,0.11,0.98,-2.12,-6.55,6.15
0.00037666666666666605,0.06,0.12,0.98,-1.19,-4.21,5.5
0.00037999999999999937,0.04,0.12,0.97,-1.16,-0.73,4.08
0.0003833333333333327,0.06,0.11,0.99,-0.41,4.53,3.34
0.000386666666666666,0.09,0.13,0.99,-0.32,9.05,3.66
0.00038999999999999934,0.1,0.13,1.01,-0.61,10.73,6.08
0.00039333333333333267,0.08,0.14,1.03,-0.89,6.17,6.96
0.000396666666666666,0.07,0.12,1.04,-1.71,2.05,7.83
0.0003999999999999993,0.06,0.11,1.02,-2.98,-3.76,7.47
0.00040333333333333264,0.06,0.11,1.0,-2.12,-7.11,7.95
0.00040666666666666596,0.06,0.11,0.99,-1.05,-10.0,7.77
0.0004099999999999993,0.06,0.11,0.97,0.5,-8.79,7.28
0.0004133333333333326,0.06,0.11,0.99,1.1,-8.55,6.11
0.00041666666666666593,0.04,0.12,1.0,0.56,-9.97,2.69
0.00041999999999999926,0.08,0.13,1.01,1.44,-5.76,2.99
0.0004233333333333326,0.09,0.13,1.01,1.37,0.21,3.22
0.0004266666666666659,0.08,0.13,1.04,0.03,1.89,3.44
0.00042999999999999923,0.07,0.13,1.05,-1.05,2.12,2.95
0.00043333333333333255,0.08,0.14,1.03,-1.69,3.37,2.15
0.0004366666666666659,0.09,0.14,1.03,-2.02,5.68,3.16
0.0004399999999999992,0.11,0.13,1.02,-1.25,5.02,4.06
0.0004433333333333325,0.1,0.14,1.0,-0.24,4.53,5.57
0.00044666666666666585,0.08,0.13,1.02,-0.24,0.63,4.58
0.0004499999999999992,0.1,0.13,1.02,-0.29,-0.05,4.99
0.0004533333333333325,0.06,0.13,1.03,-1.25,0.17,3.85
0.0004566666666666658,0.06,0.13,1.03,-1.94,1.76,3.4
0.00045999999999999915,0.07,0.13,1.02,-1.62,2.31,3.13
0.00046333333333333247,0.07,0.13,1.04,-2.73,0.11,3.15
0.0004666666666666658,0.07,0.13,1.04,-4.35,-1.36,3.25
0.0004699999999999991,0.07,0.13,1.01,-3.22,-1.73,2.67
0.00047333333333333244,0.05,0.12,1.0,-2.5,-1.89,2.31
0.00047666666666666577,0.06,0.12,1.02,-2.76,-1.21,1.76
0.0004799999999999991,0.05,0.13,1.01,-1.54,2.41,0.27
0.0004833333333333324,0.06,0.12,1.02,-1.39,5.66,-0.6
0.00048666666666666574,0.09,0.12,1.02,-1.86,6.95,1.16
0.0004899999999999991,0.09,0.12,1.0,-2.09,4.2,1.48
0.0004933333333333325,0.07,0.11,1.02,-2.18,-0.47,2.18
0.0004966666666666659,0.07,0.11,1.01,-2.47,-3.34,1.74
0.0004999999999999993,0.07,0.1,1.0,-0.96,-3.57,1.18
0.0005033333333333326,0.07,0.11,1.0,0.29,-1.73,1.13
0.000506666666666666,0.07,0.1,1.0,1.07,0.0,0.69
0.0005099999999999994,0.08,0.1,1.02,1.3,1.37,0.56
0.0005133333333333328,0.08,0.1,1.03,0.41,2.98,0.84
0.0005166666666666661,0.09,0.1,1.04,-1.48,3.22,1.86
0.0005199999999999995,0.08,0.11,1.04,-2.78,2.12,2.44
0.0005233333333333329,0.09,0.09,1.02,-2.52,0.66,3.4
0.0005266666666666663,0.09,0.1,1.0,-1.21,1.39,5.08
0.0005299999999999997,0.08,0.09,1.01,-1.04,-0.96,4.89
0.000533333333333333,0.08,0.1,1.01,-0.79,-0.43,4.38
0.0005366666666666664,0.1,0.09,1.02,-0.38,2.84,4.95
0.0005399999999999998,0.1,0.1,1.01,0.03,5.85,6.32
0.0005433333333333332,0.06,0.09,1.02,-0.6,3.19,5.16
0.0005466666666666665,0.07,0.1,1.03,-0.73,3.47,4.47
0.0005499999999999999,0.08,0.11,1.02,-1.83,3.16,5.04
0.0005533333333333333,0.08,0.11,1.04,-2.69,4.03,6.34
0.0005566666666666667,0.07,0.1,1.03,-3.91,3.68,6.38
0.0005600000000000001,0.07,0.11,1.0,-3.44,1.16,4.81
0.0005633333333333334,0.08,0.11,1.0,-2.46,4.29,6.12
0.0005666666666666668,0.07,0.1,1.0,-1.4,2.12,4.89
0.0005700000000000002,0.09,0.11,1.02,-2.0,2.21,5.57
0.0005733333333333336,0.08,0.11,1.03,-3.47,2.24,6.6
0.000576666666666667,0.06,0.11,1.02,-3.42,1.86,7.31
0.0005800000000000003,0.05,0.1,1.01,-4.35,0.2,6.27
0.0005833333333333337,0.04,0.11,1.01,-4.09,1.08,5.86
0.0005866666666666671,0.05,0.11,0.99,-3.34,2.63,4.98
0.0005900000000000005,0.08,0.11,0.99,-1.53,7.56,7.08
0.0005933333333333338,0.05,0.11,1.0,-1.48,4.23,5.24
0.0005966666666666672,0.04,0.11,0.98,-0.38,1.65,4.85
0.0006000000000000006,0.05,0.1,0.99,0.52,0.82,3.63
0.000603333333333334,0.04,0.12,1.0,1.02,0.6,2.6
0.0006066666666666674,0.05,0.11,1.01,0.9,0.89,1.97
0.0006100000000000007,0.04,0.12,1.02,0.05,1.68,1.11
0.0006133333333333341,0.05,0.11,1.02,-0.18,1.57,1.05
0.0006166666666666675,0.06,0.12,1.02,-0.64,2.24,1.4
0.0006200000000000009,0.05,0.12,1.03,-0.69,0.66,1.98
0.0006233333333333342,0.05,0.11,1.0,-1.02,-2.2,1.83
0.0006266666666666676,0.06,0.11,1.01,-0.5,-3.8,2.55
0.000630000000000001,0.04,0.11,1.0,-0.03,-4.55,0.96
0.0006333333333333344,0.04,0.1,0.99,1.15,-3.45,-0.72
0.0006366666666666678,0.06,0.1,1.0,0.79,-1.83,-0.53
0.0006400000000000011,0.06,0.11,0.99,1.69,0.87,-1.13
0.0006433333333333345,0.07,0.11,1.0,2.53,2.9,-0.66
0.0006466666666666679,0.08,0.11,1.02,2.35,2.26,0.73
0.0006500000000000013,0.08,0.11,1.03,1.44,-0.76,1.11
0.0006533333333333346,0.08,0.11,1.03,0.75,-1.97,1.79
0.000656666666666668,0.08,0.12,1.03,0.32,-2.78,2.21
0.0006600000000000014,0.05,0.12,1.03,-0.14,-0.76,1.08
0.0006633333333333348,0.07,0.11,1.02,-0.41,2.03,0.78
0.0006666666666666682,0.06,0.12,1.04,0.02,2.37,0.66
0.0006700000000000015,0.06,0.11,1.04,-0.38,1.36,0.47
0.0006733333333333349,0.06,0.1,1.04,-1.4,-1.13,1.53
0.0006766666666666683,0.08,0.11,1.03,-2.17,-2.93,2.44
0.0006800000000000017,0.07,0.11,1.01,-1.4,-3.01,2.44
0.000683333333333335,0.06,0.11,1.02,-1.24,-1.94,2.69
0.0006866666666666684,0.03,0.1,1.01,-1.36,1.77,2.47
0.0006900000000000018,0.05,0.1,1.02,-1.94,2.81,1.4
0.0006933333333333352,0.06,0.1,1.01,-2.75,1.34,-0.08
0.0006966666666666686,0.08,0.1,1.0,-2.64,1.27,1.34
0.0007000000000000019,0.06,0.1,1.0,-2.21,0.23,1.77
0.0007033333333333353,0.06,0.09,1.0,-1.8,0.66,1.89
0.0007066666666666687,0.05,0.1,1.01,-1.4,1.28,2.15
0.0007100000000000021,0.04,0.09,1.01,-1.73,1.13,2.55
0.0007133333333333355,0.04,0.09,1.0,-0.84,-0.73,1.82
0.0007166666666666688,0.07,0.09,0.98,-0.55,-2.92,1.66
0.0007200000000000022,0.06,0.09,0.98,0.2,-3.28,0.82
0.0007233333333333356,0.07,0.1,0.97,2.35,0.08,0.43
0.000726666666666669,0.08,0.1,1.0,4.2,3.59,0.29
0.0007300000000000023,0.08,0.11,1.0,4.44,4.34,0.73
0.0007333333333333357,0.07,0.11,1.04,3.48,2.92,0.96
0.0007366666666666691,0.06,0.12,1.06,2.66,2.15,1.88
0.0007400000000000025,0.06,0.12,1.05,0.12,-0.05,2.66
0.0007433333333333359,0.06,0.12,1.05,-1.18,-2.67,2.9
0.0007466666666666692,0.06,0.11,1.04,-1.24,-3.85,3.56
0.0007500000000000026,0.06,0.11,1.02,-0.61,-3.08,5.21
0.000753333333333336,0.05,0.1,1.03,-1.79,-1.3,3.15
0.0007566666666666694,0.04,0.1,1.0,-1.5,-0.92,2.18
0.0007600000000000028,0.04,0.1,1.01,-0.64,1.15,1.54
0.0007633333333333361,0.05,0.11,1.03,0.21,2.12,0.67
0.0007666666666666695,0.06,0.1,1.04,-1.15,1.92,0.18
0.0007700000000000029,0.06,0.1,1.03,-1.56,2.08,-0.2
0.0007733333333333363,0.09,0.1,1.04,-1.44,2.84,1.82
0.0007766666666666696,0.07,0.11,1.02,-1.74,3.08,2.69
0.000780000000000003,0.08,0.1,1.02,-1.97,2.87,4.5
0.0007833333333333364,0.07,0.11,1.03,-2.34,-0.06,3.91
0.0007866666666666698,0.08,0.11,1.01,-2.34,0.47,4.26
0.0007900000000000032,0.06,0.11,1.02,-2.53,1.11,4.35
0.0007933333333333365,0.05,0.1,1.02,-2.53,3.5,3.51
0.0007966666666666699,0.06,0.11,1.03,-3.04,3.33,4.26
0.0008000000000000033,0.06,0.1,1.01,-3.16,3.15,4.95
0.0008033333333333367,0.05,0.1,1.0,-2.61,0.12,4.92
0.00080666666666667,0.06,0.1,1.0,-1.82,-0.64,4.78
0.0008100000000000034,0.06,0.1,1.01,-0.82,-1.16,5.48
0.0008133333333333368,0.04,0.1,1.02,-1.34,-1.8,5.25
0.0008166666666666702,0.03,0.11,1.02,-1.86,-0.6,4.52
0.0008200000000000036,0.05,0.09,1.02,-1.98,-0.02,3.95
0.0008233333333333369,0.06,0.09,1.02,-1.44,2.15,4.64
0.0008266666666666703,0.04,0.1,1.02,-2.38,-0.64,3.82
0.0008300000000000037,0.06,0.09,1.02,-2.66,-1.71,3.37
0.0008333333333333371,0.05,0.09,1.02,-2.58,-1.92,2.92
0.0008366666666666705,0.04,0.09,1.02,-1.97,-0.44,2.61
0.0008400000000000038,0.04,0.09,1.0,-2.37,0.23,2.0
0.0008433333333333372,0.03,0.08,1.0,-1.59,-0.34,0.92
0.0008466666666666706,0.04,0.08,0.99,-0.79,-0.9,-0.14
0.000850000000000004,0.05,0.07,1.01,-0.34,0.41,-0.08
0.0008533333333333373,0.06,0.07,0.99,-0.56,-0.96,-0.29
0.0008566666666666707,0.04,0.07,0.98,0.29,-1.86,-1.19
0.0008600000000000041,0.07,0.07,0.97,2.92,0.03,-0.56
0.0008633333333333375,0.08,0.08,0.98,4.32,0.82,0.14
0.0008666666666666709,0.07,0.07,0.99,5.24,1.22,0.38
0.0008700000000000042,0.06,0.08,1.01,3.54,1.31,-0.37
0.0008733333333333376,0.08,0.08,0.99,4.49,2.14,-0.35
0.000876666666666671,0.09,0.1,0.99,6.18,0.32,1.5
0.0008800000000000044,0.08,0.09,1.0,6.95,-2.02,3.45
0.0008833333333333377,0.09,0.09,1.02,-3.37,-0.37,4.15
0.0008866666666666711,0.11,0.12,0.96,1.18,2.12,4.98
0.0008900000000000045,0.1,0.11,1.0,-0.69,10.15,7.82
0.0008933333333333379,0.09,0.09,1.01,-5.76,12.05,10.78
0.0008966666666666713,0.01,0.11,1.0,-3.27,7.25,9.37
0.0009000000000000046,-0.03,0.1,1.01,-0.99,3.83,4.69
0.000903333333333338,0.0,0.1,1.03,2.89,3.63,1.71
0.0009066666666666714,0.01,0.08,1.02,6.0,-2.6,-1.24
0.0009100000000000048,0.03,0.09,1.02,4.05,-3.18,-3.22
0.0009133333333333382,0.02,0.09,1.05,3.16,-7.85,-4.79
0.0009166666666666715,0.03,0.09,1.03,1.91,-10.14,-6.61
0.0009200000000000049,0.03,0.09,1.04,-1.31,-8.0,-7.95
0.0009233333333333383,0.02,0.09,1.07,-4.35,-7.53,-9.82
0.0009266666666666717,0.02,0.1,1.01,-2.75,-6.78,-10.89
0.000930000000000005,0.08,0.08,1.02,-1.27,-1.88,-9.04
0.0009333333333333384,0.02,0.08,1.01,-3.3,-9.66,-11.77
0.0009366666666666718,0.05,0.08,1.01,-3.56,-8.6,-12.64
0.0009400000000000052,0.05,0.09,1.02,-0.35,5.59,-9.31
0.0009433333333333386,0.07,0.09,0.97,-4.31,-5.89,-16.0
0.0009466666666666719,0.08,0.07,1.0,1.59,1.88,-11.88
0.0009500000000000053,0.04,0.09,1.01,-2.72,-3.18,-15.1
0.0009533333333333387,0.07,0.07,1.05,1.85,1.68,-10.21
0.0009566666666666721,0.1,0.09,1.0,-0.81,-3.47,-11.27
0.0009600000000000054,0.09,0.08,1.01,-3.02,-1.6,-10.64
0.0009633333333333388,0.11,0.1,1.02,-1.56,0.55,-9.01
0.0009666666666666722,0.09,0.11,1.01,-2.49,3.16,-7.53
0.0009700000000000056,0.09,0.1,1.01,-0.75,3.02,-5.94
0.000973333333333339,0.07,0.1,1.02,-1.3,0.79,-5.94
0.0009766666666666723,0.07,0.1,1.02,-0.76,-3.76,-5.57
0.0009800000000000056,0.09,0.11,1.02,-1.47,-4.27,-3.88
0.0009833333333333389,0.07,0.09,1.02,-1.85,-7.65,-4.78
0.0009866666666666721,0.07,0.1,0.98,-1.76,-8.08,-5.83
