time,accl_x,accl_y,accl_z,gyro_x,gyro_y,gyro_z
0.0,0.08,0.14,0.96,12.38,-3.42,15.18
3.3333333333333333e-06,0.07,0.14,0.97,12.78,-8.89,13.54
6.666666666666667e-06,0.04,0.15,0.99,12.72,-13.97,10.79
9.999999999999999e-06,0.05,0.14,1.01,12.37,-13.27,8.21
1.3333333333333333e-05,0.06,0.16,1.02,12.9,-6.84,4.47
1.6666666666666667e-05,0.04,0.21,1.04,3.34,-11.21,-2.31
2e-05,0.11,0.22,1.0,0.73,-12.84,-9.36
2.3333333333333336e-05,0.04,0.17,1.01,2.95,-7.34,-5.79
2.666666666666667e-05,0.03,0.22,1.09,11.65,0.44,1.47
3.0000000000000004e-05,0.14,0.22,0.97,6.31,-9.18,-3.01
3.3333333333333335e-05,0.19,0.23,0.97,4.76,11.01,9.56
3.6666666666666666e-05,0.17,0.26,0.99,5.57,5.31,3.22
3.9999999999999996e-05,0.07,0.24,0.99,6.32,1.36,1.57
4.333333333333333e-05,0.1,0.24,1.0,6.75,-0.4,-1.05
4.666666666666666e-05,0.11,0.23,1.01,7.54,-2.63,-3.21
4.999999999999999e-05,0.13,0.23,1.01,8.46,0.43,-2.7
5.333333333333332e-05,0.13,0.23,1.03,7.82,-1.68,-2.93
5.666666666666665e-05,0.11,0.22,1.07,2.9,-4.29,-5.36
5.999999999999998e-05,0.12,0.26,1.02,2.34,-4.79,-0.61
6.333333333333332e-05,0.17,0.24,1.04,4.02,2.21,3.48
6.666666666666666e-05,0.21,0.27,1.09,-2.92,-6.98,-1.36
7e-05,0.16,0.21,1.02,1.15,-2.63,3.73
7.333333333333333e-05,0.13,0.23,1.02,-0.5,-3.27,2.37
7.666666666666667e-05,0.15,0.21,1.0,-0.95,-1.76,4.24
8e-05,0.16,0.21,0.99,-0.23,-1.62,5.11
8.333333333333334e-05,0.16,0.2,1.0,-1.27,-1.86,6.98
8.666666666666668e-05,0.17,0.2,0.99,-1.31,-1.02,8.15
9.000000000000002e-05,0.12,0.2,0.97,-0.11,-4.67,6.76
9.333333333333336e-05,0.13,0.19,0.99,0.66,-3.15,5.4
9.66666666666667e-05,0.14,0.18,0.98,1.54,3.76,4.14
0.00010000000000000003,0.17,0.18,0.98,1.48,9.01,4.69
0.00010333333333333337,0.17,0.17,0.97,1.37,11.69,6.24
0.00010666666666666671,0.2,0.19,0.98,0.61,14.06,9.85
0.00011000000000000004,0.2,0.2,0.98,1.31,11.18,14.47
0.00011333333333333338,0.17,0.21,0.98,3.08,6.4,17.76
0.00011666666666666672,0.16,0.22,0.97,5.22,1.1,20.9
0.00012000000000000006,0.13,0.21,0.99,7.69,-1.1,22.64
0.0001233333333333334,0.1,0.2,1.01,7.19,-4.46,21.56
0.00012666666666666672,0.06,0.21,1.02,5.4,-7.56,18.52
0.00013000000000000004,0.06,0.22,1.02,4.31,-2.67,16.63
0.00013333333333333337,0.04,0.21,1.04,2.92,0.52,12.84
0.0001366666666666667,0.05,0.23,1.04,1.8,3.6,10.46
0.00014000000000000001,0.09,0.23,1.03,2.67,9.77,11.33
0.00014333333333333334,0.07,0.24,1.03,-1.07,2.79,7.76
0.00014666666666666666,0.08,0.23,1.02,-3.39,0.98,7.51
0.00015,0.07,0.22,1.02,-3.45,-2.52,6.15
0.0001533333333333333,0.07,0.22,1.0,-4.23,-6.55,4.76
0.00015666666666666663,0.09,0.22,0.98,-4.6,-4.35,4.93
0.00015999999999999996,0.11,0.21,0.99,-4.27,-1.33,5.86
0.00016333333333333328,0.1,0.22,0.99,-2.53,-3.74,5.31
0.0001666666666666666,0.09,0.2,0.98,-0.72,-8.67,3.71
0.00016999999999999993,0.12,0.2,0.97,0.26,-9.65,3.73
0.00017333333333333325,0.09,0.19,0.97,1.83,-14.47,0.32
0.00017666666666666658,0.05,0.19,0.95,3.3,-14.46,-4.32
0.0001799999999999999,0.07,0.19,0.98,3.91,-14.7,-9.95
0.00018333333333333323,0.12,0.19,0.98,3.18,-5.8,-10.6
0.00018666666666666655,0.09,0.19,1.06,4.6,-1.28,-9.08
0.00018999999999999987,0.14,0.23,0.92,2.63,2.06,-9.31
0.0001933333333333332,0.18,0.19,0.97,2.37,5.73,-8.75
0.00019666666666666652,0.18,0.21,1.04,-1.22,0.4,-5.6
0.00019999999999999985,0.18,0.21,1.02,-0.21,0.37,-1.95
0.00020333333333333317,0.19,0.22,1.0,-0.89,-2.29,0.81
0.0002066666666666665,0.17,0.21,1.01,-0.76,-5.3,3.28
0.00020999999999999982,0.16,0.21,1.01,-1.79,-6.99,5.24
0.00021333333333333314,0.16,0.21,1.01,-2.17,-9.6,5.42
0.00021666666666666647,0.16,0.21,1.01,-2.14,-7.89,6.89
0.0002199999999999998,0.17,0.21,1.01,-2.14,-3.48,7.71
0.00022333333333333311,0.15,0.2,1.0,-1.04,-3.39,7.36
0.00022666666666666644,0.14,0.21,1.0,-1.42,-3.89,6.23
0.00022999999999999976,0.14,0.2,0.98,0.06,-1.83,5.85
0.0002333333333333331,0.15,0.2,0.99,0.66,1.73,5.4
0.0002366666666666664,0.12,0.2,0.98,1.57,-1.22,3.66
0.00023999999999999974,0.13,0.21,0.99,1.85,-5.04,2.72
0.00024333333333333306,0.16,0.21,0.99,0.63,0.7,4.15
0.0002466666666666664,0.13,0.2,1.0,1.59,0.63,3.28
0.00024999999999999973,0.13,0.22,1.0,1.51,-2.63,2.72
0.00025333333333333306,0.14,0.21,0.98,0.99,-1.39,2.6
0.0002566666666666664,0.14,0.22,0.99,-0.11,4.02,3.36
0.0002599999999999997,0.13,0.22,0.99,0.23,3.56,1.71
0.00026333333333333303,0.13,0.21,0.99,0.72,-1.45,0.79
0.00026666666666666635,0.14,0.21,1.0,1.71,-2.84,1.34
0.0002699999999999997,0.15,0.2,0.99,1.39,-4.29,1.07
0.000273333333333333,0.15,0.2,0.99,1.05,-7.44,0.46
0.0002766666666666663,0.13,0.2,0.98,1.76,-12.66,-0.96
0.00027999999999999965,0.13,0.18,1.0,0.47,-12.58,-3.13
0.000283333333333333,0.12,0.18,0.99,4.93,-15.18,-3.24
0.0002866666666666663,0.14,0.21,0.92,2.98,-6.81,-2.24
0.0002899999999999996,0.17,0.22,0.99,-0.73,-1.98,-0.63
0.00029333333333333295,0.15,0.2,0.99,1.05,5.89,1.74
0.00029666666666666627,0.12,0.2,1.0,2.0,4.61,-0.34
0.0002999999999999996,0.14,0.21,1.02,2.34,2.6,-1.76
0.0003033333333333329,0.15,0.2,1.02,0.63,1.83,-1.39
0.00030666666666666624,0.18,0.21,1.02,-2.11,2.47,0.05
0.00030999999999999957,0.17,0.21,0.99,-2.64,2.14,2.46
0.0003133333333333329,0.15,0.2,0.99,-1.39,-1.82,0.84
0.0003166666666666662,0.14,0.2,1.0,0.21,-3.01,-0.11
0.00031999999999999954,0.17,0.2,0.99,2.02,-2.15,0.35
0.00032333333333333286,0.16,0.2,0.99,1.77,-3.8,-0.02
0.0003266666666666662,0.17,0.2,1.0,2.82,-3.02,1.4
0.0003299999999999995,0.17,0.2,1.0,2.03,-1.37,2.72
0.00033333333333333283,0.16,0.19,1.03,2.0,-2.06,3.47
0.00033666666666666616,0.14,0.2,1.02,0.55,-2.63,2.55
0.0003399999999999995,0.15,0.19,1.02,-1.73,-0.85,2.02
0.0003433333333333328,0.16,0.19,1.01,-2.41,-0.06,2.12
0.00034666666666666613,0.16,0.2,1.0,-3.27,3.21,2.49
0.00034999999999999945,0.17,0.2,0.99,-2.81,3.4,3.44
0.0003533333333333328,0.14,0.19,0.98,-2.47,3.33,4.2
0.0003566666666666661,0.15,0.2,0.99,-1.85,1.95,3.33
0.0003599999999999994,0.15,0.2,0.98,-0.47,-0.92,2.18
0.00036333333333333275,0.16,0.21,0.99,-0.06,-0.11,1.47
0.0003666666666666661,0.15,0.21,0.99,-0.27,1.97,1.05
0.0003699999999999994,0.17,0.2,0.98,1.07,4.02,1.95
0.0003733333333333327,0.17,0.2,0.99,0.96,2.87,2.92
0.00037666666666666605,0.32,0.22,1.0,-1.66,-4.93,-0.5
0.00037999999999999937,0.18,0.21,1.02,-0.21,-0.61,5.01
0.0003833333333333327,0.16,0.23,1.02,-0.34,-4.29,6.78
0.000386666666666666,0.14,0.25,1.02,-2.34,-9.13,4.29
0.00038999999999999934,0.15,0.25,1.02,-2.35,-5.48,4.37
0.00039333333333333267,0.14,0.25,1.02,-3.27,-0.34,3.07
0.000396666666666666,0.16,0.23,1.03,-5.8,3.92,2.18
0.0003999999999999993,0.16,0.22,1.02,-7.59,5.22,1.07
0.00040333333333333264,0.17,0.22,1.03,-9.25,6.82,0.15
0.00040666666666666596,0.17,0.22,1.02,-10.5,5.04,-1.36
0.0004099999999999993,0.19,0.21,1.0,-10.5,5.59,-0.7
0.0004133333333333326,0.18,0.21,0.98,-9.27,4.4,-0.64
0.00041666666666666593,0.18,0.2,0.96,-8.05,5.07,0.5
0.00041999999999999926,0.18,0.21,0.98,-7.04,3.19,1.31
0.0004233333333333326,0.17,0.19,0.98,-7.66,1.02,1.02
0.0004266666666666659,0.16,0.19,0.98,-10.72,1.73,0.92
0.00042999999999999923,0.12,0.15,1.03,-12.87,-0.46,-2.17
0.00043333333333333255,0.15,0.19,1.01,-8.7,1.98,-0.46
0.0004366666666666659,0.17,0.19,1.0,-6.64,8.4,3.48
0.0004399999999999992,0.17,0.19,1.02,-7.97,3.73,0.24
0.0004433333333333325,0.14,0.19,1.01,-11.16,0.75,-0.02
0.00044666666666666585,0.13,0.17,1.06,-10.43,-4.84,-1.63
0.0004499999999999992,0.17,0.18,0.99,-12.46,-1.28,0.44
0.0004533333333333325,0.15,0.16,1.02,-14.63,0.82,5.16
0.0004566666666666658,0.14,0.16,1.05,-20.61,-5.07,-1.18
0.00045999999999999915,0.18,0.15,0.99,-15.33,2.18,2.34
0.00046333333333333247,0.19,0.17,0.97,-15.4,2.15,2.52
0.0004666666666666658,0.17,0.15,0.98,-12.78,5.42,4.32
0.0004699999999999991,0.13,0.13,0.98,-11.69,-1.53,2.84
0.00047333333333333244,0.15,0.14,0.99,-11.91,-4.72,1.4
0.00047666666666666577,0.16,0.13,0.97,-10.02,-3.94,2.81
0.0004799999999999991,0.17,0.12,0.99,-9.22,0.18,3.69
0.0004833333333333324,0.17,0.12,0.98,-8.4,7.22,6.21
0.00048666666666666574,0.15,0.12,0.97,-5.36,9.91,6.6
0.0004899999999999991,0.12,0.12,0.97,-9.36,1.74,1.04
0.0004933333333333325,0.15,0.11,0.95,-7.3,0.32,-0.44
0.0004966666666666659,0.15,0.14,0.95,-3.36,3.28,0.73
0.0004999999999999993,0.15,0.14,0.97,-0.84,3.42,0.55
0.0005033333333333326,0.15,0.13,0.99,0.09,2.92,1.56
0.000506666666666666,0.15,0.14,0.98,0.47,-0.53,1.65
0.0005099999999999994,0.17,0.13,1.0,0.55,-0.89,2.79
0.0005133333333333328,0.16,0.12,1.01,0.82,-2.95,3.33
0.0005166666666666661,0.18,0.12,1.02,0.27,-1.47,6.24
0.0005199999999999995,0.15,0.12,1.01,-1.28,-7.05,4.11
0.0005233333333333329,0.24,0.15,1.0,-6.95,-14.23,-3.47
0.0005266666666666663,0.12,0.12,0.97,-0.95,-2.95,1.82
0.0005299999999999997,0.17,0.15,0.95,4.06,1.47,3.01
0.000533333333333333,0.16,0.14,0.99,2.52,2.06,1.6
0.0005366666666666664,0.18,0.13,0.98,-0.56,0.58,3.65
0.0005399999999999998,0.16,0.14,1.04,0.35,-2.82,3.16
0.0005433333333333332,0.18,0.14,0.99,1.08,1.65,6.34
0.0005466666666666665,0.15,0.14,1.03,1.54,0.61,6.81
0.0005499999999999999,0.15,0.14,1.02,0.72,1.36,7.13
0.0005533333333333333,0.12,0.12,1.04,-0.53,-2.15,4.26
0.0005566666666666667,0.13,0.13,1.05,-1.77,-4.78,2.31
0.0005600000000000001,0.16,0.14,1.03,-3.21,-0.32,1.57
0.0005633333333333334,0.15,0.13,1.04,-3.28,1.5,1.66
0.0005666666666666668,0.15,0.13,1.01,-6.55,-0.89,0.17
0.0005700000000000002,0.15,0.15,1.16,-4.63,0.6,-2.58
0.0005733333333333336,0.15,0.13,1.0,-2.41,4.89,1.98
0.000576666666666667,0.15,0.13,1.0,-4.09,-0.06,-0.53
0.0005800000000000003,0.19,0.12,1.0,-3.53,2.6,1.86
0.0005833333333333337,0.17,0.12,0.99,-3.83,3.36,2.79
0.0005866666666666671,0.15,0.12,0.98,-3.22,-0.89,2.64
0.0005900000000000005,0.15,0.13,0.99,-1.11,-0.37,3.65
0.0005933333333333338,0.13,0.12,0.99,0.38,-2.46,1.79
0.0005966666666666672,0.14,0.14,0.99,0.63,-1.82,1.13
0.0006000000000000006,0.14,0.14,1.0,0.85,-0.08,0.87
0.000603333333333334,0.15,0.13,1.01,0.64,2.89,1.01
0.0006066666666666674,0.17,0.13,1.01,-0.78,5.95,3.25
0.0006100000000000007,0.14,0.13,1.02,-1.51,2.27,2.55
0.0006133333333333341,0.18,0.13,0.99,-1.85,1.6,2.96
0.0006166666666666675,0.14,0.13,1.01,-2.66,-1.47,3.24
0.0006200000000000009,0.15,0.13,1.01,-3.01,0.03,4.61
0.0006233333333333342,0.12,0.13,1.01,-2.63,-1.3,3.92
0.0006266666666666676,0.11,0.12,0.98,-1.79,-4.03,1.45
0.000630000000000001,0.12,0.13,0.97,0.66,0.18,-0.47
0.0006333333333333344,0.11,0.13,0.99,2.95,3.16,-0.44
0.0006366666666666678,0.07,0.09,1.03,-0.76,10.52,-4.27
0.0006400000000000011,0.13,0.13,1.02,-0.31,6.84,-6.18
0.0006433333333333345,0.14,0.14,1.01,-0.06,3.59,-7.08
0.0006466666666666679,0.18,0.14,0.99,1.18,3.77,-4.95
0.0006500000000000013,0.16,0.15,0.98,2.26,-1.63,-3.5
0.0006533333333333346,0.16,0.14,0.98,2.72,-3.08,-1.16
0.000656666666666668,0.17,0.14,1.0,3.05,-2.06,0.72
0.0006600000000000014,0.17,0.14,0.99,2.61,-0.67,1.69
0.0006633333333333348,0.15,0.12,1.0,2.24,-0.4,0.82
0.0006666666666666682,0.13,0.12,1.0,1.48,-3.3,-3.21
0.0006700000000000015,0.13,0.12,1.01,1.42,-3.22,-5.63
0.0006733333333333349,0.18,0.12,1.02,-0.92,0.85,-4.75
0.0006766666666666683,0.17,0.13,1.05,-2.34,1.25,-3.1
0.0006800000000000017,0.17,0.12,1.05,-6.29,-2.84,-2.89
0.000683333333333335,0.18,0.13,1.08,-11.51,-4.11,-2.29
0.0006866666666666684,0.23,0.13,1.07,-15.3,-1.1,4.87
0.0006900000000000018,0.18,0.12,1.12,-18.21,-5.79,2.44
0.0006933333333333352,0.13,0.11,1.07,-6.24,3.65,9.62
0.0006966666666666686,0.11,0.11,1.03,-8.85,-8.09,5.94
0.0007000000000000019,0.11,0.11,1.12,-13.74,-11.54,2.85
0.0007033333333333353,0.16,0.11,1.05,-19.8,-6.31,0.24
0.0007066666666666687,0.17,0.1,0.98,-21.82,2.29,1.53
0.0007100000000000021,0.2,0.11,0.97,-14.32,15.45,7.4
0.0007133333333333355,0.13,0.1,0.97,-10.41,9.74,3.65
0.0007166666666666688,0.16,0.09,0.96,-8.17,8.46,1.98
0.0007200000000000022,0.15,0.1,0.97,-6.6,3.91,1.77
0.0007233333333333356,0.19,0.09,0.98,-4.26,5.28,4.47
0.000726666666666669,0.18,0.09,0.99,-2.78,2.84,7.07
0.0007300000000000023,0.16,0.09,1.01,-3.48,2.35,6.44
0.0007333333333333357,0.14,0.09,1.0,-2.58,0.55,6.17
0.0007366666666666691,0.13,0.09,0.99,-1.76,-2.23,3.82
0.0007400000000000025,0.12,0.1,1.0,0.29,-3.18,2.61
0.0007433333333333359,0.11,0.09,0.99,-8.06,-9.42,-2.06
0.0007466666666666692,0.15,0.11,1.0,-3.33,3.95,2.52
0.0007500000000000026,0.15,0.09,0.95,0.23,1.42,0.24
0.000753333333333336,0.16,0.07,0.99,1.19,-1.39,-0.58
0.0007566666666666694,0.18,0.07,1.0,3.11,2.38,1.4
0.0007600000000000028,0.18,0.08,0.97,4.63,-0.05,2.92
0.0007633333333333361,0.17,0.08,1.0,6.14,-4.89,3.15
0.0007666666666666695,0.15,0.08,1.01,5.45,-8.7,2.96
0.0007700000000000029,0.16,0.08,1.01,5.1,-6.21,5.07
0.0007733333333333363,0.19,0.07,1.02,2.79,5.71,8.72
0.0007766666666666696,0.24,0.1,0.95,-3.68,12.85,9.76
0.000780000000000003,0.14,0.09,1.06,-1.3,26.49,15.34
0.0007833333333333364,0.13,0.07,0.96,-3.56,30.06,13.02
0.0007866666666666698,0.1,0.08,1.04,-1.63,26.7,9.07
0.0007900000000000032,0.11,0.07,1.07,-4.92,14.73,6.29
0.0007933333333333365,0.06,0.13,1.14,-6.31,10.41,3.02
0.0007966666666666699,0.09,0.09,1.05,-5.21,-1.68,0.93
0.0008000000000000033,0.13,0.08,1.05,-7.51,-6.99,0.7
0.0008033333333333367,0.14,0.07,1.03,-5.62,-6.4,2.5
0.00080666666666667,0.13,0.07,1.02,-4.67,-6.89,1.51
0.0008100000000000034,0.15,0.07,1.0,-6.61,-5.6,1.05
0.0008133333333333368,0.13,0.07,0.98,-2.63,-7.01,1.33
0.0008166666666666702,0.11,0.07,0.99,-1.95,-9.63,-1.04
0.0008200000000000036,0.13,0.07,0.99,-0.82,-9.07,-2.79
0.0008233333333333369,0.16,0.08,0.99,-0.61,-1.86,-0.23
0.0008266666666666703,0.13,0.07,1.02,0.78,-2.17,-0.41
0.0008300000000000037,0.12,0.07,1.02,-0.43,-2.12,-1.83
0.0008333333333333371,0.15,0.07,1.02,-1.82,-5.39,-2.46
0.0008366666666666705,0.15,0.08,1.03,-2.21,-4.15,-0.23
0.0008400000000000038,0.14,0.07,1.04,-1.76,-3.04,0.05
0.0008433333333333372,0.14,0.06,1.03,-4.21,-1.3,-0.79
0.0008466666666666706,0.15,0.07,1.02,-2.76,-3.73,-1.5
0.000850000000000004,0.15,0.06,1.03,-2.82,-1.66,-0.17
0.0008533333333333373,0.14,0.07,1.01,-4.73,-4.87,-2.64
0.0008566666666666707,0.16,0.06,0.99,-2.72,-4.66,-1.51
0.0008600000000000041,0.16,0.07,1.01,-2.55,-4.34,-1.44
0.0008633333333333375,0.16,0.07,1.0,-1.57,-4.23,-1.11
0.0008666666666666709,0.15,0.07,1.0,-0.78,-2.2,-0.75
0.0008700000000000042,0.16,0.07,1.02,-2.12,-2.32,-2.15
0.0008733333333333376,0.2,0.08,1.01,-2.56,-0.98,0.92
0.000876666666666671,0.18,0.07,1.0,-1.31,0.12,3.68
0.0008800000000000044,0.18,0.07,1.0,-1.62,1.16,5.4
0.0008833333333333377,0.17,0.06,0.97,-0.23,-2.17,4.99
0.0008866666666666711,0.16,0.07,0.98,1.02,-2.89,5.71
0.0008900000000000045,0.16,0.06,0.97,1.28,1.08,5.92
0.0008933333333333379,0.14,0.06,0.97,2.99,-0.02,3.76
0.0008966666666666713,0.14,0.06,1.01,3.94,-1.74,2.4
0.0009000000000000046,0.13,0.06,1.01,3.69,-1.98,1.85
0.000903333333333338,0.17,0.07,1.01,4.05,0.11,3.48
0.0009066666666666714,0.16,0.06,1.03,4.03,0.03,4.23
0.0009100000000000048,0.15,0.07,1.02,2.24,-0.09,5.16
0.0009133333333333382,0.15,0.06,1.02,1.56,0.15,5.47
0.0009166666666666715,0.14,0.06,1.03,1.36,-0.66,5.07
0.0009200000000000049,0.14,0.06,1.03,-0.03,-0.27,4.21
0.0009233333333333383,0.14,0.07,1.01,-0.79,-1.15,3.89
0.0009266666666666717,0.14,0.07,1.02,0.06,-1.8,2.64
0.000930000000000005,0.18,0.07,1.02,-0.12,3.86,4.05
0.0009333333333333384,0.16,0.07,1.04,0.29,3.31,4.24
0.0009366666666666718,0.16,0.06,1.03,-2.0,2.03,3.89
0.0009400000000000052,0.18,0.07,1.03,-2.27,3.68,6.4
0.0009433333333333386,0.16,0.07,1.02,-2.38,1.39,6.63
0.0009466666666666719,0.15,0.06,1.02,-2.6,0.41,6.72
0.0009500000000000053,0.17,0.07,1.0,-2.58,4.7,8.4
0.0009533333333333387,0.19,0.07,1.01,-2.37,9.89,11.27
0.0009566666666666721,0.14,0.06,1.01,-1.31,8.29,10.37
0.0009600000000000054,0.1,0.05,1.03,-1.57,0.29,4.95
0.0009633333333333388,0.12,0.05,1.02,-2.34,0.44,3.39
0.0009666666666666722,0.15,0.05,1.03,-1.8,2.76,4.52
0.0009700000000000056,0.16,0.06,1.02,-2.9,3.57,4.82
0.000973333333333339,0.14,0.06,1.02,-3.18,-0.02,3.65
0.0009766666666666723,0.17,0.07,1.01,-3.77,3.63,6.52
0.0009800000000000056,0.15,0.06,1.02,-4.03,2.02,7.28
0.0009833333333333389,0.12,0.06,1.02,-5.83,-3.44,5.18
0.0009866666666666721,0.13,0.05,1.01,-4.81,-1.88,5.1
0.0009900000000000054,0.14,0.06,1.0,-4.11,1.04,4.43
0.0009933333333333387,0.14,0.07,1.01,-3.56,2.14,3.4
0.000996666666666672,0.15,0.06,1.0,-2.49,1.97,2.44
0.0010000000000000052,0.15,0.07,1.0,-1.18,1.86,3.54
0.0010033333333333385,0.16,0.06,1.01,-1.59,1.68,4.67
0.0010066666666666718,0.17,0.06,1.01,-1.21,2.79,6.99
0.001010000000000005,0.15,0.06,1.01,-0.6,1.69,6.81
0.0010133333333333383,0.13,0.05,1.02,-1.27,-0.73,6.5
0.0010166666666666716,0.13,0.05,1.03,-2.21,-0.23,5.16
0.0010200000000000048,0.12,0.05,1.0,-1.48,1.24,3.89
0.0010233333333333381,0.13,0.05,1.0,-0.46,3.97,2.66
0.0010266666666666714,0.16,0.06,0.99,-0.82,10.17,4.53
0.0010300000000000047,0.15,0.06,0.99,2.14,9.54,5.85
0.001033333333333338,0.14,0.07,0.98,2.49,7.74,5.89
0.0010366666666666712,0.09,0.05,1.25,3.54,4.37,8.84
0.0010400000000000045,0.18,0.06,1.0,3.19,12.78,12.12
0.0010433333333333377,0.12,0.05,1.03,0.03,2.63,8.66
0.001046666666666671,0.16,0.05,1.03,-2.15,5.13,10.17
0.0010500000000000043,0.12,0.04,1.04,-2.49,2.41,8.52
0.0010533333333333375,0.1,0.05,1.03,-3.01,-1.25,5.91
0.0010566666666666708,0.1,0.05,1.01,-2.9,-3.02,4.75
0.001060000000000004,0.15,0.04,0.99,-1.85,2.26,8.43
0.0010633333333333374,0.13,0.04,0.98,0.37,3.1,8.81
0.0010666666666666706,0.14,0.03,0.99,2.0,3.05,9.89
0.0010700000000000039,0.13,0.02,1.01,2.24,0.69,8.96
0.0010733333333333372,0.11,0.02,1.03,1.51,-1.27,6.03
0.0010766666666666704,0.11,0.03,1.05,-0.6,-1.59,3.27
0.0010800000000000037,0.14,0.05,1.06,-2.98,0.99,3.86
0.001083333333333337,0.13,0.05,1.03,-5.82,6.73,4.73
0.0010866666666666702,0.13,0.05,1.04,-6.46,10.66,7.33
0.0010900000000000035,0.15,0.06,1.02,-5.51,14.9,8.6
0.0010933333333333368,0.14,0.05,1.02,-5.57,14.5,10.58
0.00109666666666667,0.18,0.08,1.0,-7.02,11.4,13.74
0.0011000000000000033,0.08,0.03,1.02,-4.4,3.19,9.31
0.0011033333333333366,0.07,0.04,1.02,-4.7,-8.34,4.17
0.0011066666666666699,0.1,0.04,1.0,-2.66,-7.91,3.25
0.0011100000000000031,0.13,0.04,0.99,-1.28,-2.26,3.4
0.0011133333333333364,0.11,0.05,0.99,-0.67,3.36,5.04
0.0011166666666666697,0.1,0.03,1.02,0.58,2.32,2.69
0.001120000000000003,0.11,0.04,1.02,0.66,4.21,2.34
0.0011233333333333362,0.13,0.03,1.01,1.01,9.91,4.02
0.0011266666666666695,0.13,0.04,1.03,-0.44,12.64,6.49
0.0011300000000000027,0.12,0.05,1.02,-2.26,11.83,7.34
0.001133333333333336,0.1,0.03,1.02,-1.66,6.81,5.94
0.0011366666666666693,0.09,0.03,1.03,-1.86,4.17,5.07
0.0011400000000000026,0.11,0.04,1.04,-4.31,4.95,5.66
0.0011433333333333358,0.1,0.03,1.03,-5.53,4.23,5.19
0.001146666666666669,0.11,0.03,1.01,-3.13,0.46,2.82
0.0011500000000000024,0.11,0.03,1.01,-1.42,-0.06,1.15
0.0011533333333333356,0.14,0.03,1.01,-0.72,2.78,2.56
0.001156666666666669,0.13,0.03,1.0,-1.11,1.25,2.98
0.0011600000000000022,0.16,0.04,1.01,-1.45,4.69,6.75
0.0011633333333333354,0.15,0.03,1.01,-1.08,3.62,9.18
0.0011666666666666687,0.12,0.03,1.01,0.37,-1.85,9.11
0.001170000000000002,0.11,0.04,1.01,-0.21,-6.0,9.02
0.0011733333333333353,0.1,0.04,1.02,-0.66,-8.34,8.79
0.0011766666666666685,0.11,0.03,1.01,0.35,-5.33,9.85
0.0011800000000000018,0.12,0.04,1.03,1.31,-1.37,9.85
0.001183333333333335,0.1,0.04,1.02,1.91,0.79,8.21
0.0011866666666666683,0.09,0.04,1.02,3.15,1.59,6.9
0.0011900000000000016,0.1,0.04,1.03,2.56,0.85,5.8
0.0011933333333333349,0.1,0.04,1.05,1.53,0.66,6.2
0.0011966666666666681,0.1,0.04,1.05,0.46,-1.82,5.63
0.0012000000000000014,0.12,0.04,1.04,-0.2,-4.09,6.67
0.0012033333333333347,0.13,0.04,1.03,1.07,-2.81,9.33
0.001206666666666668,0.11,0.03,1.02,3.82,-3.07,10.03
0.0012100000000000012,0.11,0.04,0.99,6.92,-1.11,11.24
0.0012133333333333345,0.09,0.04,0.98,3.59,5.4,10.93
0.0012166666666666678,0.07,0.02,0.98,1.62,0.24,6.0
0.001220000000000001,0.09,0.03,0.94,8.43,9.1,6.47
0.0012233333333333343,0.08,0.03,0.99,6.89,9.36,3.76
0.0012266666666666676,0.08,0.03,1.03,6.99,4.7,1.89
0.0012300000000000008,0.09,0.05,1.18,-0.53,-3.54,-2.53
0.0012333333333333341,0.14,0.06,0.96,7.15,1.36,1.62
