accl_x,accl_y,accl_z,gyro_x,gyro_y,gyro_z
0.01,-0.08,1.05,-11.11,6.96,8.15
-0.03,-0.08,1.06,-9.8,7.13,5.66
-0.01,-0.09,1.0,-6.55,6.93,2.61
0.03,-0.1,1.02,-4.46,3.71,0.63
0.03,-0.1,1.05,-2.84,-5.01,0.14
0.06,-0.09,1.02,-0.27,-10.37,0.15
0.08,-0.09,1.02,0.76,-13.86,-0.56
0.11,-0.09,1.0,2.23,-9.42,1.54
0.12,-0.06,1.04,1.21,-2.24,3.1
0.07,-0.08,1.1,-0.63,-3.08,0.7
0.14,-0.09,1.04,-0.73,4.23,0.41
0.15,-0.08,1.04,-0.38,8.11,5.28
0.16,-0.09,1.05,-0.79,3.5,8.18
0.09,-0.1,1.1,-0.46,-0.44,8.66
0.13,-0.11,1.06,-0.41,0.35,8.32
0.09,-0.1,1.11,-8.46,2.43,8.58
0.09,-0.11,1.11,-11.88,6.98,8.72
0.09,-0.1,1.09,-10.38,10.31,10.99
0.06,-0.13,1.07,-6.75,7.79,9.79
0.05,-0.14,1.08,-3.89,5.97,7.79
0.06,-0.12,1.11,-4.53,8.26,9.01
0.06,-0.1,1.14,-8.31,8.75,8.23
-0.05,-0.15,1.2,-11.44,-0.23,5.82
-0.03,-0.13,1.17,-16.95,1.69,2.34
0.02,-0.13,1.11,-21.4,10.32,0.92
0.01,-0.14,1.1,-24.31,15.11,-0.69
0.04,-0.16,1.08,-22.79,15.48,-0.99
0.01,-0.17,1.05,-18.9,5.1,-1.39
0.02,-0.16,1.02,-13.57,-4.81,-1.47
0.04,-0.16,1.03,-11.71,-3.97,-2.29
0.07,-0.14,1.04,-13.44,3.25,-4.79
0.06,-0.14,1.06,-18.37,9.24,-4.7
0.1,-0.14,1.11,-17.33,2.9,-5.16
0.08,-0.14,1.06,-16.44,1.68,-3.88
0.08,-0.12,1.02,-15.44,-5.08,-1.47
0.06,-0.15,1.04,-13.95,-1.45,-2.78
0.06,-0.15,1.01,-12.52,-6.96,-4.9
0.09,-0.13,0.97,-11.91,-3.44,-1.21
0.1,-0.13,1.0,-9.91,-5.85,0.61
0.09,-0.13,1.0,-9.82,-1.69,-0.7
0.09,-0.13,1.05,-12.27,-2.78,-0.52
0.15,-0.11,1.04,-18.06,5.01,1.77
0.25,-0.13,0.9,-21.34,8.31,2.76
0.08,-0.15,1.02,-19.76,2.79,4.67
0.11,-0.15,0.94,-20.14,-3.94,10.84
0.13,-0.17,0.9,-15.59,-2.67,12.81
0.16,-0.21,0.86,-9.66,-7.24,12.61
0.04,-0.19,1.04,-9.31,-10.43,11.5
0.09,-0.18,0.96,-9.88,-5.57,9.24
0.05,-0.18,0.96,-8.61,-9.89,8.44
0.07,-0.17,0.98,-8.66,-8.24,6.69
0.09,-0.18,0.99,-10.09,-6.17,7.02
0.11,-0.18,1.0,-12.78,-1.36,10.2
0.16,-0.17,0.97,-14.02,5.16,15.79
0.15,-0.16,0.98,-17.47,8.37,23.95
0.13,-0.19,0.98,-21.42,4.98,27.1
0.08,-0.27,0.96,-17.69,-7.74,26.84
0.01,-0.23,1.0,-17.68,-14.6,20.76
0.02,-0.23,1.0,-15.01,-7.63,14.11
0.01,-0.23,1.02,-15.47,-4.66,10.58
0.06,-0.24,0.99,-15.31,-1.71,8.41
0.03,-0.26,1.02,-12.44,-11.77,5.33
0.03,-0.24,1.01,-9.56,-20.6,2.4
0.07,-0.23,1.0,-8.14,-23.71,2.47
0.11,-0.23,1.0,-9.6,-18.14,1.86
0.12,-0.24,0.97,-9.11,-9.45,-0.38
0.08,-0.24,1.0,-9.62,-2.11,-2.37
0.06,-0.26,1.01,-7.31,-17.18,-6.58
0.03,-0.29,1.0,-1.45,-42.89,-15.16
-0.01,-0.3,1.03,8.82,-86.72,-27.6
0.05,-0.38,1.02,34.34,-103.8,-40.78
0.1,-0.28,0.92,55.88,-127.56,-46.29
0.22,-0.14,0.75,48.46,-120.56,-31.28
0.31,-0.11,1.19,60.53,-110.89,-1.56
0.61,-0.03,0.63,1.82,-1.4,29.28
0.36,-0.17,0.86,-2.21,15.79,24.14
0.17,-0.16,1.01,-5.4,4.99,23.31
0.19,-0.16,0.99,-10.03,27.57,27.16
0.17,-0.16,0.96,-12.49,28.7,19.08
0.18,-0.19,1.0,-18.41,38.21,14.4
0.24,-0.21,1.0,-17.18,41.42,7.65
0.22,-0.22,0.96,-13.13,36.63,4.49
0.28,-0.17,0.94,-17.95,62.87,14.03
0.17,-0.23,0.95,-15.07,63.16,12.29
0.07,-0.27,1.05,-7.27,26.95,6.55
0.1,-0.25,1.03,-4.52,11.5,2.95
0.12,-0.23,1.04,-7.07,15.47,3.05
0.14,-0.21,0.98,-9.05,26.31,4.12
0.15,-0.23,0.98,-7.42,33.27,6.17
0.1,-0.24,1.03,-4.11,21.48,6.72
0.11,-0.26,1.01,-4.85,24.92,5.74
0.11,-0.25,0.98,-8.43,34.96,2.6
0.1,-0.25,1.04,-8.46,26.89,0.95
0.08,-0.25,1.03,-8.24,14.4,1.62
0.06,-0.26,1.02,-5.07,3.47,1.13
0.05,-0.27,0.99,-2.52,-7.44,-1.04
0.05,-0.25,0.97,-3.33,-3.22,-3.59
0.11,-0.24,0.99,-6.08,3.16,-6.24
0.14,-0.24,0.99,-5.65,1.68,-4.84
0.19,-0.25,0.99,-3.8,3.1,1.3
0.14,-0.25,1.01,-3.79,0.12,4.56
0.1,-0.25,1.0,-1.74,0.76,3.11
0.1,-0.25,1.0,-5.16,1.48,1.18
0.11,-0.26,0.99,-3.73,5.02,-0.37
0.09,-0.25,1.02,-3.31,-4.23,-2.17
0.11,-0.23,1.0,-2.64,-8.9,-0.67
0.13,-0.23,0.99,-1.74,-8.43,0.72
0.15,-0.23,0.98,-1.94,-6.29,3.36
0.15,-0.24,0.97,-1.5,-0.56,3.59
0.14,-0.24,1.0,-2.53,3.89,3.83
0.14,-0.23,0.97,-3.92,5.45,5.28
0.09,-0.24,1.0,-3.73,-4.47,5.66
0.07,-0.27,0.99,-0.11,-18.79,4.69
0.08,-0.27,1.0,1.3,-33.13,2.4
0.08,-0.28,1.04,0.9,-45.45,-2.02
0.12,-0.28,0.99,1.22,-45.3,-6.17
0.14,-0.25,0.98,2.81,-41.65,-5.31
0.09,-0.22,1.01,-0.87,-43.73,3.6
0.22,-0.23,0.9,-0.23,-37.5,10.4
0.28,-0.21,0.87,-0.32,-20.79,22.11
0.25,-0.23,0.98,-0.75,-9.34,27.31
0.18,-0.25,1.01,-2.26,-13.97,25.31
0.17,-0.25,0.99,-4.08,-14.63,22.38
0.17,-0.25,0.98,-4.4,-12.76,20.17
0.16,-0.27,0.94,-0.61,-5.39,17.76
0.16,-0.25,0.95,0.89,-0.6,17.15
0.16,-0.27,0.97,0.79,0.41,15.15
0.17,-0.27,0.98,1.57,1.8,14.38
0.16,-0.26,0.99,0.55,1.62,14.03
0.14,-0.27,0.98,0.73,3.77,11.16
0.16,-0.25,1.03,-2.79,2.44,8.67
0.16,-0.26,0.99,-3.04,4.06,9.02
0.18,-0.27,0.98,-4.08,7.51,9.42
0.16,-0.28,1.0,-3.21,5.68,10.14
0.17,-0.27,0.98,-2.6,5.8,14.37
0.13,-0.28,0.99,-1.97,1.47,13.02
0.12,-0.28,1.01,-1.51,-0.7,9.8
0.12,-0.26,0.99,-4.58,6.15,7.95
0.13,-0.26,1.0,-7.19,10.05,5.19
0.12,-0.26,0.99,-6.26,6.87,4.7
0.11,-0.27,0.97,-3.62,3.45,3.5
0.12,-0.29,0.98,-3.28,0.69,1.94
0.13,-0.27,0.96,-4.35,0.08,1.56
0.15,-0.27,0.94,-4.6,2.75,4.11
0.12,-0.28,0.95,-2.18,-0.72,3.86
0.11,-0.27,0.96,-1.11,-1.1,2.87
0.12,-0.28,0.97,0.11,-3.34,1.51
0.13,-0.27,0.98,-1.95,-4.82,-0.26
0.14,-0.28,0.98,-3.22,-4.23,-1.02
0.14,-0.27,0.95,-2.14,-3.51,-0.93
0.13,-0.26,0.96,-1.39,2.34,0.5
0.14,-0.28,0.96,-0.32,5.22,0.15
0.14,-0.28,0.96,1.4,1.76,0.21
0.13,-0.29,0.95,3.91,-0.93,-2.24
0.1,-0.28,0.98,4.53,-1.83,-8.34
0.09,-0.27,0.98,2.82,5.76,-14.76
0.13,-0.26,1.01,-1.74,16.17,-15.15
0.16,-0.24,1.04,-7.74,12.98,-13.16
0.08,-0.25,1.1,-7.4,-10.15,-9.71
0.08,-0.27,1.07,-4.75,-24.18,-10.35
0.11,-0.27,1.0,-5.57,-21.62,-12.23
0.18,-0.27,0.99,-6.37,-11.24,-10.87
0.22,-0.27,0.97,-7.19,2.41,-8.63
0.2,-0.28,0.96,-10.31,11.74,-8.53
0.17,-0.31,0.99,-7.44,3.04,-5.57
0.16,-0.28,1.03,-10.17,-5.11,-1.57
0.2,-0.28,1.0,-10.9,-0.58,1.39
0.16,-0.3,1.01,-11.63,-6.35,0.69
0.18,-0.31,0.94,-10.17,-5.39,2.27
0.17,-0.31,0.94,-8.44,-1.28,2.87
0.19,-0.31,0.93,-8.38,2.37,3.85
0.18,-0.31,0.94,-6.87,4.9,3.51
0.16,-0.31,0.95,-6.82,5.83,4.34
0.18,-0.32,0.92,-4.75,3.3,5.62
0.13,-0.33,0.96,-2.24,-8.29,4.0
0.11,-0.32,0.99,-1.33,-18.56,1.98
0.19,-0.31,0.93,-1.01,-9.92,2.37
0.22,-0.31,0.93,-2.92,-0.34,3.88
0.19,-0.31,0.95,-4.9,7.11,3.6
0.17,-0.31,0.99,-7.07,3.44,3.63
0.15,-0.31,1.0,-4.95,0.29,3.04
0.12,-0.32,1.0,-2.52,-7.51,2.76
0.13,-0.32,0.97,-1.34,-10.52,2.09
0.13,-0.31,0.98,-2.47,-10.79,-0.49
0.19,-0.3,0.95,-3.05,0.0,-1.5
0.2,-0.3,0.93,-6.15,5.92,0.14
0.16,-0.3,0.94,-5.69,7.07,0.12
0.16,-0.3,0.96,-6.02,2.82,1.5
0.14,-0.31,0.96,-5.05,-5.04,1.37
0.15,-0.31,0.94,-4.24,-8.47,1.28
0.17,-0.31,0.93,-4.7,-6.12,2.9
0.16,-0.32,0.93,-4.78,-5.6,1.47
0.13,-0.31,0.92,-3.54,-6.05,-0.46
0.17,-0.31,0.95,-4.21,-3.37,-0.37
0.14,-0.32,0.93,-2.79,-2.2,-1.21
0.17,-0.32,0.93,-2.92,-0.52,0.7
0.19,-0.32,0.93,-1.71,1.1,3.51
0.14,-0.33,0.95,-0.4,-4.21,4.52
0.12,-0.33,0.96,0.49,-10.05,3.19
0.13,-0.33,0.97,0.52,-9.73,0.43
0.17,-0.32,0.96,-2.43,-1.08,1.65
0.18,-0.33,0.97,-3.4,2.09,0.06
0.16,-0.36,0.95,-3.79,-0.95,-1.79
0.17,-0.32,0.97,-2.31,-1.44,-0.98
0.15,-0.33,0.98,1.16,-3.51,0.09
0.14,-0.32,1.0,1.76,-11.1,0.47
0.16,-0.33,0.99,1.85,-13.34,-0.81
0.17,-0.32,0.98,0.93,-7.69,-0.41
0.14,-0.32,1.01,-1.05,-9.51,-1.13
0.16,-0.32,0.99,-2.02,-6.5,-4.7
0.21,-0.32,0.93,-5.21,0.85,-5.53
0.21,-0.32,0.95,-3.15,5.91,-3.92
0.21,-0.34,0.92,-1.95,-5.6,-1.04
0.17,-0.34,0.96,0.27,-9.5,1.54
0.17,-0.34,0.94,2.46,-14.87,0.67
0.17,-0.34,0.94,3.04,-17.5,0.02
0.18,-0.34,0.95,2.66,-15.68,-2.73
0.2,-0.33,0.93,1.01,-8.15,-3.62
0.2,-0.33,0.96,0.66,-3.77,-3.62
0.2,-0.33,0.94,1.48,-4.82,-4.15
0.17,-0.32,0.95,2.79,-3.15,-3.82
0.25,-0.34,0.94,1.65,1.21,0.26
0.17,-0.34,1.02,-1.05,-1.15,0.63
0.14,-0.34,1.04,0.27,-5.42,-2.47
0.13,-0.35,1.04,2.03,-16.93,-3.25
0.19,-0.35,0.99,1.5,-19.01,-3.37
0.22,-0.34,1.01,-2.4,-10.96,-3.95
0.23,-0.33,0.98,-4.58,-1.18,-4.0
0.24,-0.33,0.96,-4.92,3.53,-4.29
0.22,-0.33,0.95,-2.76,0.32,-3.77
0.2,-0.34,0.96,-0.09,-8.64,-2.41
0.22,-0.34,0.93,3.15,-17.98,-2.03
0.23,-0.34,0.93,4.0,-23.37,-1.4
0.25,-0.32,0.9,2.14,-16.93,-2.02
0.31,-0.3,0.92,-1.83,3.01,-3.15
0.27,-0.29,0.96,-5.18,11.73,-2.93
0.24,-0.29,0.98,-5.62,10.56,-2.24
0.23,-0.3,0.98,-4.7,0.37,-0.76
0.23,-0.31,0.97,-2.64,-8.06,1.95
0.22,-0.32,0.93,-3.16,-15.15,1.79
0.25,-0.31,0.91,-2.63,-8.4,2.15
0.28,-0.3,0.92,-5.33,3.63,2.41
0.26,-0.3,0.95,-6.17,8.4,1.5
0.22,-0.32,0.96,-4.81,6.43,0.7
0.21,-0.32,0.97,-3.92,-0.78,2.37
0.18,-0.31,0.95,-0.64,-8.84,2.23
0.17,-0.33,0.93,1.82,-12.76,2.66
0.21,-0.34,0.85,7.83,-13.92,0.4
0.27,-0.32,0.97,3.56,-18.27,4.35
0.3,-0.31,0.95,1.22,-3.97,7.65
0.23,-0.32,0.96,-2.46,-9.5,5.22
0.24,-0.29,0.98,-6.37,-4.58,3.91
0.24,-0.3,0.94,-8.98,-1.07,5.15
0.23,-0.31,0.93,-8.37,8.37,5.15
0.26,-0.34,0.9,-6.47,4.24,4.53
0.2,-0.34,0.95,-7.31,-4.47,3.19
0.2,-0.33,0.95,-6.06,-8.61,2.32
0.2,-0.32,0.94,-5.57,-9.42,1.82
0.23,-0.32,0.93,-6.18,-7.79,0.72
0.24,-0.32,0.9,-5.4,-7.97,1.47
0.25,-0.32,0.89,-5.66,-10.03,2.69
0.23,-0.33,0.91,-4.66,-2.61,2.29
0.22,-0.33,0.89,-5.53,-4.56,2.03
0.22,-0.35,0.92,-1.8,-3.83,2.41
0.22,-0.35,0.92,0.44,-11.45,1.65
0.21,-0.35,0.91,1.24,-11.66,2.08
0.26,-0.35,0.91,0.78,-7.19,3.69
0.24,-0.36,0.92,-2.32,-1.25,2.31
0.21,-0.38,0.92,-2.44,0.66,-0.43
0.21,-0.36,0.92,-1.04,0.47,-1.94
0.21,-0.39,0.94,1.68,-5.76,-3.54
0.21,-0.39,0.92,4.66,-12.46,-4.52
0.26,-0.38,0.92,8.27,-14.2,-2.4
0.26,-0.38,0.92,11.73,-19.15,-1.79
0.23,-0.37,0.94,13.36,-25.04,-1.97
0.28,-0.36,0.92,13.01,-20.56,-2.38
0.32,-0.35,0.91,12.69,-11.4,-1.22
0.29,-0.36,0.92,12.27,-11.13,-2.7
0.29,-0.35,0.91,14.15,-16.73,-2.53
0.31,-0.34,0.93,15.47,-25.34,-1.3
0.3,-0.32,1.01,13.74,-33.76,0.84
0.33,-0.32,0.94,16.47,-35.21,2.6
0.3,-0.32,0.95,17.13,-42.0,1.16
0.33,-0.29,1.03,9.59,-28.31,-3.25
0.43,-0.25,0.98,-3.02,10.05,-5.22
0.41,-0.26,0.97,-13.5,33.62,-4.27
0.31,-0.29,1.05,-18.95,29.04,-3.27
0.28,-0.31,1.0,-13.74,8.0,-0.11
0.29,-0.33,0.93,-9.18,-4.31,2.89
0.33,-0.33,0.93,-9.83,4.6,4.49
0.28,-0.35,0.94,-3.3,-11.08,5.21
0.25,-0.35,0.9,3.71,-30.78,5.15
0.33,-0.31,0.92,3.13,-18.44,4.92
0.32,-0.3,0.95,0.32,-7.37,3.86
0.3,-0.33,0.94,-0.93,-9.37,2.98
0.33,-0.37,0.92,-0.96,-11.39,5.34
0.36,-0.33,0.95,-0.55,-9.79,6.41
0.35,-0.33,0.91,1.79,-6.55,6.78
0.29,-0.33,0.95,1.69,-22.14,4.37
0.32,-0.33,0.94,0.92,-22.6,4.03
0.36,-0.33,0.93,-3.07,-12.5,4.17
0.37,-0.31,0.94,-9.42,5.18,1.68
0.38,-0.3,0.91,-16.27,28.41,1.79
0.34,-0.32,0.93,-17.36,27.77,2.21
0.32,-0.34,0.93,-13.05,17.02,4.29
0.3,-0.35,0.89,-7.89,5.79,5.51
0.28,-0.35,0.88,-3.71,-3.79,5.11
0.28,-0.35,0.89,-0.31,-12.21,3.63
0.28,-0.33,0.88,1.63,-12.64,2.37
0.32,-0.32,0.89,1.19,-8.32,3.21
0.35,-0.32,0.89,-0.98,0.2,3.89
0.31,-0.32,0.91,-2.4,-2.26,3.68
0.3,-0.31,0.91,-2.76,-3.98,4.49
0.3,-0.31,0.87,-1.39,-5.22,5.31
0.28,-0.31,0.86,0.0,-8.4,5.04
0.27,-0.33,0.81,1.3,-12.06,4.99
0.31,-0.35,0.8,1.27,-6.47,4.98
0.34,-0.33,0.81,-0.23,7.65,4.49
0.29,-0.31,0.86,-3.45,11.07,2.73
0.24,-0.32,0.86,-2.89,2.67,1.63
0.27,-0.31,0.81,-1.1,-5.5,4.15
0.27,-0.32,0.76,4.95,-8.81,3.66
0.24,-0.31,0.76,11.37,-17.88,3.66
0.26,-0.32,0.73,14.0,-21.5,4.03
0.29,-0.28,0.73,15.37,-17.36,5.51
0.31,-0.27,0.72,17.3,-13.42,6.79
0.3,-0.27,0.72,19.54,-10.41,7.36
0.27,-0.29,0.74,21.73,-10.38,5.53
0.25,-0.28,0.77,22.08,-15.11,4.05
0.27,-0.3,0.74,23.04,-13.8,0.99
0.27,-0.29,0.72,24.95,-15.85,1.01
0.3,-0.29,0.71,24.26,-7.65,-0.93
0.35,-0.29,0.76,22.43,5.3,2.38
0.31,-0.3,0.8,21.15,22.96,-1.94
0.26,-0.3,0.85,16.46,38.5,-7.76
0.23,-0.29,0.92,15.04,29.42,-11.48
0.23,-0.28,0.9,20.23,9.98,-10.26
0.27,-0.26,0.83,26.14,-1.45,-7.91
0.3,-0.24,0.77,31.22,-12.75,-6.05
0.3,-0.22,0.77,35.59,-14.79,-4.58
0.29,-0.2,0.76,38.0,-9.62,-8.21
0.3,-0.18,0.78,36.64,-6.49,-11.98
0.35,-0.16,0.78,35.8,7.08,-12.17
0.32,-0.15,0.83,36.08,6.6,-12.2
0.32,-0.12,0.87,34.75,5.02,-10.35
0.29,-0.11,0.88,31.02,2.02,-11.16
0.28,-0.11,0.9,27.59,7.25,-13.39
0.38,-0.15,0.82,24.37,32.03,-13.37
0.37,-0.16,0.85,24.47,40.55,-10.09
0.33,-0.17,0.93,26.09,40.69,-4.43
0.25,-0.15,0.98,27.16,35.15,-4.5
0.14,-0.14,1.0,29.89,20.23,-9.74
0.15,-0.14,1.01,31.6,4.4,-15.31
0.27,-0.16,0.97,29.15,6.5,-12.18
0.45,-0.2,1.03,14.9,23.76,-9.85
0.28,-0.16,1.05,14.92,38.55,-15.63
0.24,-0.12,1.04,12.49,30.38,-16.96
0.24,-0.1,1.06,9.65,30.18,-18.43
0.25,-0.09,1.02,2.73,32.93,-21.82
0.33,-0.13,1.03,5.02,24.63,-16.99
0.33,-0.14,1.04,11.44,17.65,-9.36
0.33,-0.14,1.07,10.52,20.12,-6.43
0.29,-0.1,1.09,5.05,14.55,-8.99
0.27,-0.1,1.06,3.47,3.89,-9.57
0.3,-0.14,1.08,5.53,-8.24,-9.3
0.32,-0.1,1.03,11.85,-13.18,-8.81
0.4,-0.11,0.98,23.11,-11.91,-4.18
0.42,-0.11,1.01,28.37,-6.46,1.6
0.38,-0.11,1.06,31.56,-4.2,4.98
0.34,-0.09,1.14,29.73,-5.4,6.76
0.29,-0.08,1.24,25.88,-10.02,4.31
