accl_x,accl_y,accl_z,gyro_x,gyro_y,gyro_z
0.09,-0.11,1.01,-8.43,17.8,6.41
0.09,-0.12,1.0,-6.66,12.85,4.29
0.09,-0.1,1.01,-4.69,4.82,3.37
0.1,-0.11,0.99,-1.18,3.21,3.08
0.1,-0.11,1.03,-1.73,3.25,4.37
0.08,-0.12,1.02,-2.23,3.13,3.18
0.07,-0.11,1.05,-4.55,4.35,2.21
0.11,-0.12,1.05,-7.62,8.35,2.41
0.08,-0.12,0.99,-5.21,7.89,0.34
0.08,-0.12,1.02,-3.39,1.66,-0.85
0.14,-0.1,0.98,-1.31,5.51,3.24
0.11,-0.1,1.0,0.73,3.5,4.95
0.05,-0.13,1.02,1.88,-9.05,0.58
0.02,-0.13,0.98,7.71,-27.24,-6.18
0.02,-0.11,0.96,12.73,-40.02,-13.62
0.09,-0.12,0.91,33.54,-45.97,-16.05
0.14,-0.04,0.98,25.6,-43.44,-18.96
0.24,-0.06,1.05,11.79,-23.92,-10.09
0.22,-0.07,1.04,2.4,-1.15,-5.65
0.18,-0.08,1.0,2.72,2.85,-5.82
0.17,-0.08,1.06,-6.81,-1.15,-5.01
0.17,-0.06,1.11,-10.17,-4.67,-5.62
0.18,-0.05,1.07,-12.46,-2.84,-7.88
0.25,-0.04,1.05,-5.45,3.07,-2.85
0.23,-0.06,1.09,-10.58,1.95,1.07
0.19,-0.09,1.07,-16.34,6.08,1.21
0.17,-0.07,1.04,-26.53,-1.82,0.64
0.03,-0.04,0.96,23.05,0.76,3.48
0.27,-0.03,0.79,42.67,109.74,27.77
-0.12,-0.14,1.29,-22.18,3.04,15.19
0.17,-0.14,1.0,-20.58,18.81,19.82
0.06,-0.1,0.88,-15.59,12.73,13.16
0.08,-0.11,0.86,-7.73,11.74,8.2
0.04,-0.14,0.96,-6.73,4.7,2.93
0.12,-0.11,0.95,-0.34,12.2,-1.19
0.11,-0.13,1.06,-7.19,10.35,-0.34
0.12,-0.12,1.01,-5.91,6.21,-0.84
0.15,-0.11,0.94,-2.12,-0.61,0.96
0.13,-0.13,0.97,-2.89,1.4,4.66
0.08,-0.15,1.04,-7.85,2.35,5.34
0.04,-0.19,1.05,-10.52,-2.26,1.4
0.02,-0.15,0.98,-8.2,-1.42,-2.24
0.04,-0.15,1.02,-5.45,-3.77,-7.4
0.08,-0.16,1.08,-8.27,-2.14,-5.79
0.12,-0.18,1.08,-12.09,3.66,-2.21
0.18,-0.18,1.16,-16.85,1.98,3.16
0.09,-0.16,1.11,-18.96,11.19,2.98
0.04,-0.21,1.11,-22.76,26.08,2.24
0.11,-0.17,1.05,-14.14,1.6,-0.27
0.18,-0.14,0.99,-15.05,2.47,1.18
0.17,-0.17,1.04,-15.97,5.51,4.17
0.16,-0.17,1.04,-16.56,6.58,5.4
0.13,-0.19,0.99,-15.91,5.33,3.8
0.1,-0.18,0.97,-13.15,0.49,2.0
0.12,-0.2,0.94,-9.19,0.15,-0.52
0.11,-0.23,1.02,-12.7,-7.4,0.85
0.13,-0.18,0.98,-11.15,-1.88,2.18
0.13,-0.17,0.94,-8.93,-3.18,1.91
0.14,-0.19,0.89,3.24,-4.63,3.8
0.11,-0.07,0.91,7.91,-3.04,-0.53
0.13,-0.2,0.81,32.64,-4.31,-3.34
0.13,-0.15,0.78,43.57,-9.1,3.91
0.19,-0.07,0.93,23.5,3.68,16.98
0.14,-0.14,1.09,9.02,11.86,21.19
0.05,-0.18,1.09,-4.66,20.26,10.38
0.13,-0.14,1.05,-18.2,31.02,9.91
0.17,-0.12,0.96,-15.16,30.15,12.99
0.14,-0.12,0.92,-6.84,25.25,14.38
0.1,-0.13,0.94,-3.82,26.95,14.67
-0.01,-0.16,1.06,-9.31,21.59,9.21
0.06,-0.16,1.03,-12.63,29.15,9.36
0.08,-0.16,0.98,-10.43,26.64,9.16
0.03,-0.14,0.95,-6.31,29.69,7.8
0.1,-0.18,0.95,-6.95,25.4,9.73
0.07,-0.16,0.97,-3.36,30.95,11.11
0.01,-0.19,0.99,-1.08,23.4,7.33
0.01,-0.2,0.96,2.56,7.53,0.35
-0.02,-0.19,1.01,8.73,3.88,-5.24
-0.01,-0.21,1.01,8.89,-2.99,-9.77
-0.05,-0.22,0.96,14.37,-14.99,-8.99
0.03,-0.16,0.96,25.74,-15.51,-5.21
0.1,-0.15,1.0,17.53,-29.51,-4.17
0.05,-0.2,0.95,10.43,-34.92,-7.79
0.03,-0.18,1.0,9.33,-18.26,-2.93
0.09,-0.15,0.97,6.55,-3.82,2.11
0.06,-0.14,1.01,-1.25,-2.06,4.02
0.04,-0.17,1.07,-5.68,-3.01,4.15
0.05,-0.16,1.05,-2.49,-3.3,6.99
0.02,-0.15,1.02,-1.62,1.42,3.66
0.02,-0.16,1.01,-7.53,0.09,1.56
0.11,-0.13,1.01,-6.66,12.24,4.73
0.09,-0.16,1.03,-7.83,19.83,7.21
0.03,-0.17,1.03,-7.05,16.95,6.15
0.03,-0.19,0.99,-1.36,-1.07,0.44
-0.01,-0.2,1.06,-5.11,-12.44,-3.39
0.04,-0.19,1.09,-12.84,-5.5,-1.76
0.08,-0.18,1.08,-20.17,-0.84,-0.75
0.08,-0.19,1.02,-20.93,-6.24,-0.31
0.1,-0.18,0.94,-15.65,-10.52,2.02
0.1,-0.17,0.93,-10.23,-11.89,4.35
0.07,-0.19,0.97,-9.13,-12.87,3.73
0.02,-0.19,0.99,-5.69,-3.15,2.81
0.08,-0.19,1.01,-13.68,-4.05,3.71
0.11,-0.2,0.98,-14.31,-14.75,5.27
0.1,-0.17,0.93,-8.26,-18.98,3.98
0.1,-0.16,0.94,-1.6,-21.73,5.48
0.11,-0.15,0.99,1.56,-21.39,3.16
0.09,-0.19,1.03,-3.77,-23.31,0.63
0.03,-0.19,1.08,-10.17,-25.4,-8.63
-0.04,-0.19,1.09,-24.23,-10.46,-18.56
0.19,-0.25,0.89,-10.08,-34.9,-29.21
0.11,-0.16,0.91,1.77,-55.1,-18.32
0.16,-0.1,0.94,13.45,-36.43,-13.19
0.2,-0.12,0.92,9.66,-20.24,2.35
0.3,-0.14,0.87,10.67,1.94,15.08
0.15,-0.19,1.0,7.24,-1.97,14.05
0.06,-0.23,1.03,2.61,-4.17,7.77
0.09,-0.2,1.07,-2.64,-1.02,7.39
0.15,-0.19,1.02,-4.96,10.89,9.65
0.14,-0.19,1.0,-5.34,3.19,9.4
0.09,-0.2,1.03,-1.5,0.78,8.4
0.09,-0.2,1.02,0.79,-4.85,11.97
0.13,-0.2,0.99,5.73,-4.56,9.04
0.14,-0.22,1.01,4.21,-10.35,5.47
0.11,-0.23,1.04,5.89,-16.46,-0.58
0.11,-0.22,1.01,3.56,-21.39,-6.98
0.16,-0.2,1.0,1.31,-12.99,-6.64
0.22,-0.19,0.98,-1.6,-1.3,-1.27
0.19,-0.21,0.99,-1.62,-1.54,-1.48
0.14,-0.21,0.98,-0.72,-7.11,-2.12
0.15,-0.2,1.0,-2.58,-9.48,1.07
0.21,-0.11,1.02,-6.93,-6.12,7.95
0.31,-0.13,0.98,-9.34,12.76,24.73
0.28,-0.14,0.98,-6.96,20.99,34.75
0.17,-0.2,1.0,-4.67,14.26,32.6
0.09,-0.21,1.0,-5.45,2.87,25.6
0.14,-0.19,0.89,-1.18,-6.26,21.22
0.07,-0.23,1.04,2.18,-1.77,7.37
0.1,-0.23,1.02,0.99,-11.42,2.27
0.15,-0.2,1.01,0.72,-16.98,0.98
0.17,-0.19,1.01,1.39,-24.44,-0.75
0.14,-0.21,0.99,15.42,-29.34,0.72
0.1,-0.11,1.05,3.83,-28.61,-0.34
0.1,-0.2,1.01,14.2,-30.35,-2.47
0.16,-0.15,1.0,5.44,-21.25,4.47
0.21,-0.18,0.96,6.52,-10.4,11.4
0.19,-0.17,0.97,1.53,-6.5,10.26
0.18,-0.17,0.95,4.41,-3.44,9.18
0.16,-0.17,0.93,10.05,-3.65,9.86
0.15,-0.16,0.88,21.15,-6.96,7.48
0.15,-0.16,0.86,48.47,31.62,14.34
0.09,-0.12,0.96,31.04,14.11,4.89
0.11,-0.15,1.22,16.85,4.58,1.63
0.15,-0.11,1.15,4.98,19.57,9.48
0.17,-0.11,1.12,-1.34,23.71,15.85
0.21,-0.13,1.06,0.67,18.69,13.92
0.17,-0.14,1.03,0.43,14.67,17.76
0.11,-0.16,0.98,2.5,10.05,17.53
0.05,-0.18,0.99,9.54,1.3,10.21
0.01,-0.19,0.97,11.15,-14.6,-2.89
0.1,-0.17,1.05,-0.41,-10.72,-0.41
0.21,-0.16,1.1,-11.42,3.73,7.25
0.18,-0.15,1.01,-11.73,10.15,9.28
0.09,-0.15,0.95,-7.73,8.06,11.91
0.06,-0.19,0.95,-3.4,-1.53,5.18
0.1,-0.18,0.96,-0.82,-2.11,1.1
0.18,-0.15,0.91,2.29,7.19,5.6
0.14,-0.17,0.98,-0.7,4.34,7.4
0.11,-0.26,1.03,-4.84,-4.98,0.98
0.06,-0.19,1.08,-15.28,-9.88,-1.24
0.13,-0.18,1.02,-18.11,-3.94,-2.73
0.16,-0.18,0.97,-17.76,0.64,-5.56
0.18,-0.17,0.91,-13.91,2.76,-4.31
0.16,-0.16,0.88,-13.01,8.12,10.14
0.1,-0.16,0.98,-5.53,2.53,5.53
0.09,-0.18,0.95,-4.4,-8.17,0.99
0.11,-0.2,0.92,3.77,-8.96,-3.6
0.14,-0.2,0.97,3.44,-9.1,-5.51
0.16,-0.2,1.06,-5.77,-2.95,-5.21
0.18,-0.19,1.04,-10.9,6.37,-2.87
0.24,-0.16,0.96,-15.57,25.57,5.11
0.22,-0.19,0.99,-21.36,33.33,8.35
0.16,-0.2,0.95,-21.13,39.39,20.05
0.01,-0.19,0.9,-15.94,27.37,11.82
0.05,-0.23,0.96,-5.88,14.4,9.8
0.1,-0.2,1.0,-10.26,8.93,4.11
0.09,-0.25,0.99,-6.03,1.5,0.96
0.09,-0.22,1.05,-7.71,-4.05,-2.87
0.15,-0.19,1.05,-21.16,7.66,2.38
0.16,-0.22,1.01,-18.43,18.44,7.5
0.13,-0.19,0.99,-17.13,25.28,9.89
0.08,-0.21,1.01,-15.73,14.69,6.46
0.05,-0.24,0.98,-4.84,3.33,2.41
0.05,-0.25,0.99,-1.62,-8.15,0.93
0.05,-0.24,0.99,1.37,-14.95,-4.21
0.07,-0.24,1.0,-1.36,-17.02,-2.4
0.11,-0.23,1.02,-4.44,-7.08,-1.94
0.13,-0.23,1.01,-5.45,-4.73,-3.1
0.15,-0.23,1.0,-6.17,-3.22,-0.84
0.15,-0.25,0.98,-2.96,-9.31,1.21
0.09,-0.26,0.96,1.91,-15.83,0.78
0.09,-0.24,0.96,6.14,-21.74,-0.47
0.1,-0.22,0.97,8.02,-22.15,-0.69
0.12,-0.21,0.99,7.24,-17.05,-0.26
0.16,-0.21,1.0,6.43,-6.27,0.06
0.1,-0.21,1.03,0.4,-2.49,0.41
0.09,-0.22,1.03,-3.76,0.27,-2.23
0.14,-0.23,1.02,-4.06,-1.94,-2.53
0.18,-0.22,0.94,-2.15,-1.25,0.58
0.16,-0.22,0.91,2.43,-2.35,2.27
0.17,-0.23,0.91,4.76,-4.99,1.28
0.18,-0.2,0.91,7.94,1.66,5.56
0.17,-0.22,0.93,12.61,3.79,6.32
0.14,-0.24,0.99,11.02,1.54,4.0
0.12,-0.24,1.04,5.18,1.63,4.03
0.11,-0.24,1.02,3.15,-1.86,-0.9
0.15,-0.23,0.98,2.5,0.23,-1.02
0.18,-0.21,0.95,5.25,3.07,1.98
0.14,-0.21,0.95,8.64,-3.42,1.94
0.11,-0.22,1.01,8.2,-9.69,3.8
0.11,-0.21,1.07,2.79,-12.98,2.73
0.12,-0.2,1.02,3.62,-14.84,0.9
0.11,-0.21,1.03,0.78,-12.79,0.31
0.12,-0.2,1.03,-3.82,-2.69,1.4
0.13,-0.19,0.99,-4.17,8.53,0.66
0.11,-0.22,1.0,-4.99,12.58,-1.57
0.1,-0.22,0.99,-6.98,14.31,-0.85
0.07,-0.22,0.99,-4.72,4.21,-0.82
0.11,-0.22,0.98,0.35,-10.46,-2.49
0.14,-0.22,0.97,5.01,-20.5,-3.62
0.13,-0.21,0.98,6.05,-20.08,-5.79
0.12,-0.22,1.05,-2.6,-9.89,-8.92
0.17,-0.18,1.03,-10.9,11.36,-3.73
0.17,-0.2,0.99,-11.89,18.27,-2.84
0.14,-0.22,0.97,-9.73,9.08,-4.61
0.12,-0.22,0.99,-7.65,-0.72,-2.64
0.15,-0.22,0.99,-6.96,-5.74,-3.66
0.15,-0.22,0.95,-3.4,-5.36,-4.31
0.14,-0.23,0.93,-1.47,-3.77,-6.72
0.15,-0.21,0.97,-6.31,6.18,-2.56
0.18,-0.21,0.95,-5.83,8.52,-0.49
0.15,-0.23,0.96,-2.89,2.6,-1.05
0.11,-0.25,0.97,0.06,-5.68,-4.03
0.14,-0.24,0.98,0.89,-9.59,-4.82
0.14,-0.24,0.98,-0.17,-9.48,-5.71
0.15,-0.23,0.99,-1.45,-8.37,-8.29
0.15,-0.24,0.99,-3.39,-4.73,-7.73
0.15,-0.22,1.0,-6.84,-3.01,-6.31
0.18,-0.23,1.01,-8.63,-2.93,-7.37
0.18,-0.22,0.99,-8.66,-4.4,-8.31
0.18,-0.22,0.99,-8.35,-3.89,-4.23
0.22,-0.21,0.94,-6.75,-1.16,0.14
0.18,-0.24,0.94,-4.21,-2.84,-0.05
0.13,-0.25,0.95,-3.77,-5.4,-3.4
0.15,-0.24,0.97,-5.36,-0.31,-5.07
0.14,-0.17,0.97,-4.89,6.61,-3.66
0.15,-0.25,0.95,-2.21,3.63,-4.26
0.13,-0.26,0.94,2.41,-4.9,-6.9
0.17,-0.31,0.92,0.35,-8.43,-2.96
0.17,-0.24,0.98,-0.5,-4.63,-0.5
0.12,-0.23,0.94,-1.4,-3.98,4.76
0.12,-0.24,0.97,-1.8,-3.07,3.71
0.17,-0.25,0.99,-5.02,0.78,3.31
0.19,-0.23,0.97,-5.71,6.29,3.13
0.16,-0.25,0.98,-5.89,5.74,2.81
0.18,-0.25,0.97,-4.27,7.24,5.98
0.16,-0.23,0.97,-2.96,6.4,10.29
0.13,-0.24,1.0,-2.35,3.94,7.1
0.12,-0.25,1.02,-2.27,3.36,4.24
0.12,-0.24,1.03,-3.91,4.31,3.04
0.12,-0.25,1.04,-6.52,1.33,1.85
0.13,-0.25,1.02,-6.27,-1.22,2.7
0.17,-0.23,0.96,-5.45,5.18,7.82
0.13,-0.25,0.97,-3.37,3.77,7.18
0.08,-0.26,0.97,-3.01,2.63,4.44
0.09,-0.27,1.0,-4.81,5.34,0.56
0.1,-0.26,1.0,-5.71,6.03,-4.61
0.12,-0.26,0.98,-7.08,6.82,-4.78
0.14,-0.26,0.99,-7.07,4.93,-3.5
0.13,-0.25,1.01,-6.6,2.47,-3.3
0.11,-0.26,0.97,-2.31,0.35,-2.78
0.13,-0.26,0.96,-4.47,-2.41,-2.67
0.15,-0.25,0.97,-3.18,-2.18,-0.61
0.13,-0.26,0.95,-1.92,-2.23,0.37
0.16,-0.25,0.97,-4.82,6.24,5.3
0.13,-0.26,0.96,-5.22,10.78,2.18
0.11,-0.27,0.98,-9.02,10.7,-0.18
0.12,-0.27,0.98,-9.51,8.84,-2.84
0.16,-0.27,0.97,-9.73,6.92,-1.54
0.14,-0.27,0.97,-9.5,2.81,0.18
0.12,-0.27,0.94,-6.14,1.13,1.74
0.13,-0.27,0.94,-3.82,1.02,1.5
0.13,-0.28,0.94,-4.03,2.73,-0.81
0.16,-0.28,0.95,-6.2,10.64,-0.02
0.19,-0.29,0.97,-8.38,15.25,0.27
0.16,-0.3,0.99,-10.61,10.92,1.94
0.13,-0.29,0.98,-7.3,2.46,2.44
0.13,-0.3,0.96,-3.08,-5.65,2.31
0.13,-0.3,0.96,-2.34,-9.31,1.74
0.16,-0.28,0.95,-4.06,0.08,9.27
0.12,-0.29,0.95,-3.53,6.84,6.99
0.11,-0.3,0.98,-5.53,10.27,3.6
0.1,-0.3,0.99,-6.5,9.07,1.42
0.13,-0.29,0.98,-6.99,6.47,1.91
0.14,-0.28,1.0,-5.66,-0.81,2.53
0.1,-0.29,0.99,-4.98,-8.93,2.64
0.09,-0.29,0.96,-3.63,-9.01,2.61
0.11,-0.28,0.97,-1.73,-1.62,4.06
0.1,-0.29,1.01,-4.05,-2.0,2.93
0.1,-0.3,0.99,-6.23,5.11,4.89
0.11,-0.31,1.0,-7.88,17.36,6.56
0.14,-0.31,0.97,-9.73,21.45,9.76
0.1,-0.31,0.98,-6.78,11.07,7.28
0.08,-0.32,1.01,-4.55,-7.37,3.4
0.1,-0.3,1.0,-3.54,-17.69,1.85
0.11,-0.3,0.96,-2.58,-19.56,-2.08
0.15,-0.3,0.93,-4.99,-8.82,1.4
0.18,-0.28,0.91,-6.29,2.24,6.78
0.16,-0.28,0.92,-6.67,8.82,11.85
0.09,-0.3,0.93,-5.05,3.28,9.3
0.08,-0.33,0.94,-9.92,-16.53,5.66
0.2,-0.36,0.88,-7.66,-15.02,2.23
0.09,-0.29,0.96,2.35,-4.87,8.58
0.15,-0.31,0.9,0.15,4.78,12.9
0.15,-0.29,0.86,-3.68,19.21,18.58
0.12,-0.29,1.02,-15.53,21.25,16.37
0.07,-0.27,1.0,-26.64,24.05,8.98
0.03,-0.37,0.97,-20.82,25.21,0.41
0.01,-0.35,0.94,-18.08,11.4,-5.04
0.04,-0.33,0.89,-2.76,4.34,-4.26
0.1,-0.32,0.88,6.0,12.38,3.76
0.07,-0.32,0.97,10.69,1.98,4.08
0.09,-0.32,0.98,7.83,-0.78,6.66
0.18,-0.32,0.92,3.68,7.16,7.92
0.04,-0.27,1.08,-4.96,16.14,7.98
0.03,-0.32,1.09,-9.51,18.84,5.15
0.01,-0.31,1.06,-12.14,15.98,1.13
0.05,-0.32,1.0,-10.84,16.49,1.27
0.09,-0.31,0.95,-8.09,19.04,5.13
0.09,-0.32,0.93,-6.14,18.05,7.08
0.05,-0.33,0.95,-4.02,12.26,6.55
0.0,-0.33,0.96,-0.2,2.72,1.31
0.02,-0.34,0.95,-0.46,1.05,-2.11
0.06,-0.33,0.96,-4.38,4.87,-1.18
0.07,-0.34,0.95,-4.23,3.08,-0.82
0.09,-0.34,0.92,-2.69,0.52,2.14
0.09,-0.34,0.91,-0.17,-4.23,4.24
0.07,-0.34,0.94,-1.48,-5.33,5.04
0.03,-0.34,0.98,-4.99,-4.14,1.37
-0.01,-0.35,1.0,-8.08,1.44,-5.51
0.0,-0.35,0.97,-9.47,6.27,-9.73
0.05,-0.34,0.95,-7.8,7.05,-9.3
0.09,-0.34,0.91,-3.27,5.66,-4.56
0.09,-0.34,0.92,-1.18,2.09,0.96
0.05,-0.35,0.97,-0.56,-4.6,2.69
0.02,-0.35,0.99,-0.72,-7.34,0.32
0.05,-0.34,0.97,-1.85,-4.93,0.14
0.06,-0.34,0.97,-4.56,4.38,1.82
0.04,-0.34,0.96,-2.81,6.21,2.23
-0.02,-0.35,0.95,-1.15,2.52,-1.45
0.01,-0.35,0.98,-3.02,-0.17,-3.27
0.04,-0.35,0.96,-3.77,1.36,-2.69
0.06,-0.35,0.96,-5.04,2.5,-2.02
0.05,-0.34,0.94,-3.79,0.9,-1.16
0.06,-0.34,0.93,-2.43,-1.28,1.11
0.04,-0.34,0.94,-1.05,-5.48,1.56
0.03,-0.34,0.95,-2.58,-4.58,2.06
