accl_x,accl_y,accl_z,gyro_x,gyro_y,gyro_z
-0.01,-0.06,0.91,-2.23,4.82,0.23
0.0,-0.07,0.92,-2.79,7.3,2.46
-0.02,-0.07,0.91,-1.79,5.07,4.61
-0.05,-0.07,0.91,-0.72,4.99,3.89
-0.05,-0.07,0.97,-4.58,15.28,1.44
-0.04,-0.08,1.0,-10.44,29.69,-1.71
-0.0,-0.07,1.0,-16.21,43.56,-2.31
0.04,-0.1,1.0,-15.85,46.41,-3.3
0.01,-0.06,0.98,-11.92,31.97,-4.31
0.01,-0.06,0.92,1.37,13.11,-4.35
-0.03,-0.07,0.89,16.56,-6.43,-7.18
0.02,-0.07,0.92,25.05,-8.46,-6.03
0.04,-0.06,1.02,20.7,-4.44,-2.6
0.03,-0.06,1.08,16.43,-0.61,-1.74
0.02,-0.06,1.1,12.79,-3.86,-1.53
-0.0,-0.07,1.11,8.73,-4.85,-1.27
0.01,-0.05,1.06,6.87,1.02,0.24
0.01,-0.07,1.07,4.58,5.01,2.12
-0.05,-0.08,1.1,2.7,0.55,-1.01
-0.03,-0.07,1.04,5.31,-9.92,-1.98
-0.07,-0.07,1.05,8.44,-20.56,-5.45
-0.06,-0.07,1.04,8.5,-21.74,-8.64
-0.0,-0.06,1.08,3.73,-7.63,-7.56
0.01,-0.05,1.07,-2.18,4.7,-5.05
0.01,-0.05,1.09,-4.84,11.73,-3.34
-0.02,-0.04,1.06,-4.38,1.01,-5.94
-0.02,-0.04,1.0,-0.85,-8.46,-6.82
-0.0,-0.04,1.01,-0.82,-9.86,-6.38
0.01,-0.04,1.02,-2.43,-6.31,-6.17
0.02,-0.02,0.98,-1.83,1.71,-3.77
-0.0,-0.03,0.99,-2.23,5.18,-3.02
-0.04,-0.05,1.01,-1.44,0.73,-7.95
-0.05,-0.04,1.01,-1.82,-6.0,-13.76
0.02,-0.02,0.96,0.11,-3.68,-9.15
0.01,-0.03,0.98,0.31,-2.58,-8.34
-0.01,-0.05,0.98,1.94,-3.42,-8.52
0.03,-0.03,0.98,2.32,0.96,-5.27
0.04,-0.03,0.95,1.95,5.11,-1.94
0.03,-0.02,0.96,1.73,10.64,0.81
-0.0,-0.04,0.98,0.29,9.65,-0.66
-0.06,-0.05,1.02,-0.38,0.7,-7.05
-0.05,-0.05,1.0,1.31,-8.03,-12.11
0.02,-0.02,0.95,4.9,-11.79,-10.49
0.06,-0.02,0.97,5.45,-7.85,-3.51
0.05,-0.02,0.99,3.71,-3.77,-1.15
0.01,-0.03,1.0,2.82,1.8,-2.93
-0.02,-0.03,1.0,3.63,4.73,-4.9
-0.0,-0.04,1.01,2.76,2.43,-6.29
0.02,-0.02,0.98,5.44,1.01,-4.24
0.01,-0.04,1.02,5.59,-2.4,-5.25
0.01,-0.04,1.04,3.07,-2.31,-5.3
0.03,-0.04,1.07,0.49,-0.84,-4.31
0.05,-0.04,1.05,-2.17,2.44,-2.18
0.04,-0.04,1.04,-1.86,1.65,0.18
0.05,-0.04,1.03,-1.37,-0.21,1.39
0.01,-0.04,1.01,-0.24,-4.41,-0.7
0.02,-0.04,1.0,1.6,-7.39,-1.27
0.02,-0.04,1.0,1.68,-4.93,-0.41
0.0,-0.04,1.03,0.96,-2.79,-1.34
-0.03,-0.05,1.03,0.85,-3.71,-4.92
0.02,-0.04,1.06,-1.89,-0.6,-0.7
0.03,-0.05,1.06,-4.93,2.14,2.31
0.01,-0.04,1.05,-5.08,-0.73,2.24
0.02,-0.04,1.03,-4.46,-0.18,2.96
0.02,-0.04,1.0,-4.11,0.67,2.46
-0.03,-0.05,1.02,-0.75,-2.2,-1.95
0.01,-0.05,1.02,-2.15,-1.74,-2.53
-0.0,-0.04,1.02,-1.33,-2.02,-3.25
0.01,-0.05,1.01,-1.77,-1.3,-2.81
0.03,-0.05,1.04,-4.21,-1.1,-1.57
0.03,-0.04,1.05,-5.85,-0.03,-1.16
0.03,-0.04,1.01,-4.99,-2.73,-0.6
0.0,-0.04,0.99,-2.93,-5.79,-1.48
0.02,-0.05,0.98,-0.7,-5.28,-1.83
0.05,-0.03,0.96,-1.25,5.39,2.87
0.02,-0.05,0.99,-1.82,9.34,3.97
-0.03,-0.06,1.01,-3.74,6.58,0.95
-0.05,-0.07,1.06,-5.34,0.85,-4.84
-0.0,-0.06,1.04,-6.05,-0.95,-5.63
0.03,-0.07,0.98,-4.49,-0.5,-2.49
0.02,-0.05,0.97,-1.83,4.7,0.64
-0.0,-0.06,1.0,-2.06,5.65,0.12
-0.01,-0.05,1.0,-0.79,5.48,-0.72
-0.04,-0.05,1.03,-0.87,7.22,-3.34
0.02,-0.07,1.02,-2.37,10.75,-2.34
-0.01,-0.06,1.02,-3.25,5.6,-4.08
-0.03,-0.06,1.09,-5.8,1.19,-6.05
0.01,-0.05,1.06,-6.17,-2.67,-5.45
-0.0,-0.04,1.02,-5.15,-4.85,-5.1
-0.0,-0.04,1.02,-5.89,-0.93,-4.64
0.01,-0.05,1.03,-7.48,5.1,-4.82
0.01,-0.05,1.03,-9.31,7.02,-3.86
0.01,-0.06,1.04,-10.44,5.6,-4.44
0.01,-0.06,1.01,-8.41,2.18,-3.51
0.0,-0.05,0.99,-5.8,-1.33,-3.08
-0.02,-0.06,0.98,-3.51,-3.83,-4.53
-0.01,-0.06,1.0,-3.01,-3.1,-5.08
0.02,-0.06,0.99,-2.67,1.24,-3.86
-0.0,-0.04,1.0,-2.4,5.25,-3.3
0.03,-0.06,0.98,-2.81,6.72,-1.92
-0.01,-0.05,0.97,1.25,0.11,-2.76
-0.04,-0.07,0.99,3.25,-6.87,-5.45
-0.02,-0.07,1.0,4.08,-7.47,-7.53
0.03,-0.05,0.98,4.17,-1.27,-5.44
0.02,-0.06,0.97,5.31,1.22,-4.05
0.0,-0.07,0.97,8.52,1.22,-4.61
-0.03,-0.06,0.97,12.35,-0.69,-6.49
-0.01,-0.06,0.97,16.52,-2.75,-7.11
0.02,-0.05,0.99,17.74,-1.28,-5.22
-0.01,-0.05,1.0,16.96,-1.08,-5.42
-0.02,-0.04,1.0,17.6,-0.55,-7.21
-0.03,-0.04,1.03,15.79,0.63,-8.9
0.0,-0.04,1.05,11.83,5.34,-6.84
-0.0,-0.04,1.07,7.57,4.52,-6.32
-0.01,-0.04,1.08,3.34,1.19,-6.56
-0.02,-0.04,1.09,0.21,-1.98,-9.15
-0.01,-0.04,1.06,-2.4,-3.82,-11.18
0.0,-0.04,1.03,-2.92,-5.36,-10.46
0.03,-0.03,1.02,-3.36,-1.77,-5.79
0.04,-0.03,1.01,-4.2,2.78,-2.18
-0.0,-0.04,1.02,-4.53,0.6,-3.79
-0.03,-0.04,1.04,-4.17,-3.07,-7.18
-0.0,-0.05,1.0,-2.85,-4.17,-7.5
0.01,-0.05,0.98,-0.73,-4.17,-5.63
0.02,-0.05,1.0,-1.05,-1.44,-3.69
0.02,-0.04,1.0,-3.25,3.25,-0.87
-0.0,-0.04,1.04,-5.54,7.11,-1.92
0.02,-0.04,1.02,-7.65,10.03,-0.82
0.0,-0.05,1.03,-7.36,6.82,-1.07
-0.02,-0.05,1.03,-6.98,3.71,-4.29
0.01,-0.04,1.0,-6.7,7.45,-2.7
0.01,-0.04,1.0,-5.89,10.92,-1.15
-0.01,-0.05,1.01,-5.57,8.75,-0.7
-0.03,-0.06,1.04,-2.05,6.47,-3.3
0.01,-0.04,1.01,-4.53,4.93,-3.01
0.01,-0.04,1.0,-4.11,5.22,-0.95
0.02,-0.04,1.01,-5.34,10.87,2.23
0.02,-0.05,1.01,-8.06,15.66,6.32
0.02,-0.05,1.06,-13.15,23.88,11.91
0.03,-0.03,1.05,-17.42,29.88,16.93
-0.02,-0.04,1.02,-19.01,32.46,17.31
-0.06,-0.07,1.06,-21.33,28.56,12.55
-0.11,-0.08,1.07,-19.59,14.29,0.89
-0.06,-0.07,1.0,-14.7,6.96,-3.34
-0.0,-0.05,0.93,-9.24,7.97,1.1
-0.06,-0.07,0.94,-3.22,1.24,-0.47
-0.1,-0.08,0.97,2.81,-7.42,-3.98
-0.09,-0.08,0.96,6.5,-12.93,-6.18
-0.06,-0.09,1.01,4.5,-11.98,-5.4
-0.04,-0.07,1.01,1.24,-6.55,-3.39
-0.06,-0.08,1.01,-1.05,-2.89,-3.36
-0.05,-0.08,1.01,-3.98,0.56,-3.91
-0.04,-0.07,0.99,-6.23,4.93,-2.95
-0.04,-0.08,1.01,-7.3,3.39,-3.68
-0.04,-0.08,0.98,-5.68,-1.69,-3.19
-0.04,-0.09,0.98,-4.21,-4.56,-3.08
-0.03,-0.08,0.99,-4.98,1.94,-2.0
-0.06,-0.08,0.98,-6.47,6.06,-2.9
-0.04,-0.09,0.98,-5.79,8.52,-2.41
-0.05,-0.08,0.99,-3.22,4.58,-2.35
-0.07,-0.09,0.97,0.2,-3.28,-2.78
-0.07,-0.09,1.0,2.49,-9.89,-3.3
-0.05,-0.08,1.0,3.24,-5.77,-2.63
-0.07,-0.1,1.02,-0.27,-0.98,-2.61
-0.06,-0.08,1.02,-2.24,3.95,-3.37
-0.07,-0.09,1.04,-3.56,4.24,-5.02
-0.04,-0.08,1.05,-4.37,0.12,-5.21
-0.04,-0.08,1.03,-4.73,-0.69,-4.44
-0.04,-0.08,1.05,-6.11,0.26,-4.23
-0.03,-0.08,1.01,-5.89,0.58,-2.67
-0.05,-0.09,1.01,-5.31,-0.95,-2.89
-0.04,-0.09,1.01,-4.56,-0.6,-2.38
-0.04,-0.09,1.01,-4.23,0.35,-1.56
-0.04,-0.1,1.0,-5.1,5.6,-0.5
-0.05,-0.1,1.0,-4.93,8.67,0.96
-0.06,-0.1,1.01,-4.31,6.53,0.41
-0.09,-0.12,1.03,-2.53,-1.39,-2.99
-0.08,-0.12,1.04,-2.31,-6.56,-5.25
-0.07,-0.11,1.01,-2.82,-4.58,-6.34
-0.07,-0.11,1.0,-4.9,2.11,-6.99
-0.02,-0.1,0.97,-5.51,11.63,-4.61
-0.04,-0.1,0.96,-3.77,13.66,-3.63
-0.05,-0.1,0.98,-1.36,8.87,-3.33
-0.04,-0.1,0.98,1.22,5.4,-2.26
-0.04,-0.1,1.0,1.01,1.83,-1.22
-0.04,-0.11,1.0,1.04,2.84,-0.67
-0.03,-0.1,1.0,-0.32,6.56,1.53
-0.05,-0.1,1.03,-2.72,9.51,1.44
-0.07,-0.1,1.03,-4.21,9.37,0.02
-0.05,-0.11,1.02,-3.02,5.13,-0.93
-0.08,-0.1,1.0,-1.02,-1.59,-1.77
-0.06,-0.1,0.99,2.87,-5.07,-1.07
-0.06,-0.09,0.96,6.27,-5.19,1.04
-0.09,-0.1,1.01,5.54,-2.37,-0.56
-0.08,-0.09,1.03,-0.27,5.89,-0.92
-0.05,-0.09,1.04,0.31,16.95,1.88
-0.07,-0.08,1.04,-6.66,12.75,1.31
-0.05,-0.09,1.01,-5.37,8.64,3.36
-0.06,-0.09,0.96,-0.32,3.57,4.5
-0.07,-0.08,0.95,4.24,1.27,5.02
-0.1,-0.09,0.96,8.09,0.66,2.47
-0.11,-0.09,0.96,10.47,-2.05,-1.69
-0.11,-0.11,1.02,8.6,-4.34,-5.21
-0.09,-0.1,1.04,6.2,-8.44,-8.43
-0.06,-0.09,1.02,3.88,-4.46,-7.6
-0.03,-0.08,1.0,3.19,-2.9,-4.79
-0.09,-0.1,1.0,5.85,-7.53,-5.71
-0.12,-0.09,1.01,8.58,-11.95,-9.11
-0.1,-0.1,1.0,9.42,-14.92,-12.99
-0.05,-0.07,1.0,5.76,-9.48,-8.46
-0.08,-0.11,1.03,2.26,-8.64,-10.58
-0.11,-0.12,1.04,5.33,-17.39,-16.41
-0.06,-0.05,1.02,0.52,-15.74,-13.91
-0.01,-0.08,1.01,-2.93,-4.9,-9.11
-0.03,-0.08,1.01,-5.66,3.54,-6.47
-0.08,-0.09,1.03,-5.98,1.48,-9.74
-0.04,-0.09,1.0,-4.12,1.21,-5.98
-0.02,-0.08,0.99,-1.15,1.34,-0.56
-0.07,-0.11,1.05,-1.86,-2.27,-1.33
-0.08,-0.11,1.07,-2.7,-4.58,-4.29
-0.04,-0.09,1.05,-5.44,-1.94,-2.32
-0.06,-0.1,1.03,-7.36,1.25,-2.56
-0.05,-0.1,1.0,-8.35,3.11,-3.24
-0.06,-0.08,0.98,-3.86,0.27,-4.66
-0.03,-0.08,0.97,-1.98,4.35,-1.71
0.0,-0.11,0.98,-3.34,10.0,-0.08
-0.06,-0.1,1.01,-4.4,6.47,-1.76
-0.02,-0.09,1.0,-2.92,4.41,-0.89
-0.01,-0.08,0.98,-2.7,5.82,0.81
-0.01,-0.08,0.98,-4.43,12.47,2.85
-0.04,-0.08,1.02,-7.5,16.21,3.36
-0.07,-0.1,1.04,-8.75,9.54,0.43
-0.05,-0.11,1.02,-7.86,2.44,0.69
-0.05,-0.1,1.02,-8.14,-0.29,-0.6
-0.06,-0.1,1.02,-10.09,2.95,-0.79
-0.01,-0.09,1.0,-10.7,9.98,3.1
-0.03,-0.09,0.98,-9.71,12.18,5.31
-0.05,-0.11,1.0,-9.5,9.33,7.54
-0.11,-0.12,1.03,-7.82,4.46,5.94
-0.17,-0.14,1.08,-8.24,-3.68,-0.96
-0.16,-0.14,1.11,-11.36,0.52,-4.29
-0.09,-0.13,1.09,-17.79,4.03,-4.29
-0.06,-0.13,1.03,-19.54,8.66,-1.36
-0.1,-0.14,1.0,-15.05,2.66,-1.63
-0.12,-0.14,0.97,-11.02,-4.69,-4.43
-0.1,-0.14,0.97,-7.36,-10.78,-6.11
-0.1,-0.14,0.98,-6.12,-15.47,-7.59
-0.11,-0.15,1.02,-7.69,-17.39,-10.7
-0.09,-0.15,1.02,-12.02,-11.97,-11.63
-0.06,-0.14,0.99,-15.42,-1.07,-10.26
-0.04,-0.13,0.98,-17.07,5.73,-7.04
-0.06,-0.14,1.0,-16.12,3.6,-7.85
-0.02,-0.14,0.95,-13.1,1.73,-4.6
-0.03,-0.15,0.95,-8.09,-2.6,-2.14
-0.04,-0.15,0.94,-4.02,-8.24,-0.6
-0.09,-0.16,0.96,0.7,-15.42,-2.0
-0.1,-0.16,1.02,1.8,-14.31,-5.36
-0.06,-0.17,1.06,-4.0,-11.13,-5.62
-0.0,-0.2,1.01,-9.98,0.06,0.37
-0.01,-0.15,1.03,-14.08,6.7,5.16
-0.1,-0.14,0.97,-11.8,2.72,2.08
-0.09,-0.19,0.92,-0.73,-6.84,-2.85
-0.03,-0.17,0.95,-3.82,-4.23,-2.53
-0.03,-0.15,0.93,-1.8,-0.5,-2.27
-0.06,-0.17,0.95,-0.11,-5.04,-4.58
-0.07,-0.17,0.98,-0.12,-3.3,-8.56
-0.04,-0.18,1.02,-4.34,4.09,-6.52
-0.07,-0.17,1.02,-5.34,-1.34,-9.85
-0.08,-0.18,0.98,-3.71,-7.71,-13.88
-0.07,-0.18,0.99,-1.25,-17.74,-19.63
-0.11,-0.19,0.99,5.76,-33.97,-29.4
-0.16,-0.17,1.04,-0.6,-51.4,-41.6
0.13,-0.07,0.98,-5.42,-14.63,-25.62
0.28,-0.08,0.96,-12.55,34.12,8.52
0.06,-0.15,0.98,-11.62,38.64,15.59
-0.02,-0.16,0.98,-5.66,27.68,14.96
-0.02,-0.18,0.99,-2.55,20.18,17.59
-0.01,-0.2,1.03,-8.15,23.94,18.76
-0.08,-0.19,1.04,-11.44,18.09,12.53
-0.03,-0.18,1.03,-16.4,22.32,15.37
0.01,-0.18,1.0,-18.4,28.56,19.8
-0.07,-0.19,0.95,-13.88,19.68,15.33
-0.1,-0.2,0.94,-6.9,8.41,10.43
-0.09,-0.2,0.94,-2.85,7.73,7.19
-0.05,-0.19,0.95,-4.37,17.11,9.66
-0.05,-0.2,1.0,-5.82,20.41,11.04
-0.11,-0.22,1.01,-6.05,11.66,7.1
-0.15,-0.23,1.06,-3.89,-5.91,-0.6
-0.12,-0.2,1.02,-4.4,-7.44,-1.94
-0.04,-0.19,0.98,-7.05,3.02,3.13
-0.07,-0.21,1.0,-9.5,10.34,4.4
-0.1,-0.21,1.0,-9.01,8.87,1.47
-0.11,-0.21,0.97,-6.66,1.62,0.47
-0.12,-0.19,0.96,-3.3,-7.08,-2.32
-0.14,-0.2,0.99,-0.34,-19.37,-4.61
-0.14,-0.21,1.04,2.12,-30.47,-9.37
-0.02,-0.19,1.01,-1.15,-13.08,-2.96
0.02,-0.18,1.0,-8.08,11.86,3.37
-0.04,-0.2,0.96,-12.67,22.96,5.8
-0.11,-0.22,0.97,-8.61,15.22,3.13
-0.1,-0.22,0.97,-5.83,7.8,2.7
-0.06,-0.22,0.99,-5.37,7.34,3.97
-0.07,-0.22,0.99,-4.05,2.49,4.6
-0.12,-0.24,0.97,-0.93,-8.5,1.34
-0.11,-0.22,0.99,-1.69,-7.4,1.33
-0.11,-0.22,0.99,-3.91,-1.02,-0.69
-0.11,-0.22,0.99,-6.84,3.65,-3.04
-0.07,-0.21,0.97,-6.6,5.76,-3.56
-0.07,-0.22,0.94,-2.69,1.25,-2.34
-0.08,-0.22,0.95,2.21,-9.07,-1.98
-0.05,-0.22,0.94,6.24,-13.04,1.83
-0.09,-0.23,0.96,8.23,-12.58,2.79
-0.06,-0.21,0.94,5.88,-1.08,6.44
-0.09,-0.25,0.99,1.31,9.11,6.4
-0.16,-0.25,1.03,-2.08,6.31,-0.55
-0.15,-0.24,1.0,-0.69,0.32,-7.27
-0.08,-0.22,0.95,1.48,-2.41,-5.69
-0.07,-0.23,0.95,2.63,0.44,-1.76
-0.09,-0.23,0.99,0.66,3.1,-0.63
-0.1,-0.22,0.99,0.38,3.8,-1.16
-0.07,-0.21,0.98,-1.18,9.16,2.02
-0.08,-0.21,1.0,-1.65,9.94,3.79
-0.1,-0.23,1.02,-2.55,1.47,2.2
-0.12,-0.21,0.98,0.81,-6.06,-0.84
-0.09,-0.22,0.96,3.97,-8.76,-2.03
-0.1,-0.22,0.95,6.95,-8.56,-3.73
-0.1,-0.21,0.94,11.37,-7.62,-4.6
-0.08,-0.2,0.92,18.72,-12.35,-5.04
-0.08,-0.21,0.94,48.73,-46.27,0.11
-0.14,-0.23,1.01,30.32,-84.09,-19.05
-0.04,-0.25,1.15,38.29,-90.73,-26.21
0.07,-0.11,1.06,29.05,-80.06,-2.9
0.15,-0.09,0.99,24.2,-30.43,19.79
-0.02,-0.16,1.03,13.02,-12.79,17.95
-0.14,-0.21,1.09,-0.03,4.63,8.21
-0.05,-0.17,1.02,-10.49,25.02,8.78
-0.04,-0.16,1.0,-16.41,39.18,11.19
-0.02,-0.18,1.03,-22.96,46.12,15.59
-0.07,-0.17,0.99,-17.33,31.05,13.25
-0.09,-0.17,0.94,-9.07,15.63,9.66
-0.07,-0.16,0.97,-3.92,14.92,10.73
-0.04,-0.16,0.97,-8.02,21.13,16.53
-0.06,-0.17,1.02,-11.98,28.12,19.27
-0.19,-0.18,1.03,-12.89,21.97,7.92
-0.17,-0.19,1.05,-11.6,9.25,-3.62
-0.05,-0.18,0.99,-9.94,5.39,-3.54
-0.01,-0.18,0.96,-9.59,7.34,1.59
-0.01,-0.18,0.92,-9.85,14.31,8.14
-0.1,-0.19,0.95,-4.53,6.73,5.42
-0.12,-0.2,0.92,2.9,-0.79,-0.49
-0.1,-0.2,0.92,8.55,-7.66,-1.95
-0.09,-0.21,0.98,10.5,-13.54,-4.0
-0.09,-0.2,1.0,8.49,-20.79,-4.79
-0.07,-0.21,1.05,5.77,-26.17,-6.43
-0.04,-0.21,1.06,-1.05,-25.31,-8.82
-0.07,-0.16,1.05,-3.13,-19.3,-10.69
-0.03,-0.14,0.97,-2.11,-9.04,-7.86
0.03,-0.14,0.97,-2.41,-0.2,-3.1
0.02,-0.15,0.94,-0.73,1.11,1.22
0.01,-0.16,0.96,0.14,0.06,6.75
-0.01,-0.18,0.99,-0.93,-3.53,11.18
-0.06,-0.18,1.01,-1.07,-9.4,10.08
-0.08,-0.18,1.04,-4.46,-11.59,8.15
-0.06,-0.18,1.03,-8.76,-6.61,7.34
-0.05,-0.18,0.99,-12.02,-0.47,7.31
