accl_x,accl_y,accl_z,gyro_x,gyro_y,gyro_z
0.39,0.19,0.91,-4.5,-4.03,2.44
0.39,0.18,0.9,-2.32,-4.35,1.69
0.38,0.19,0.91,-1.56,-6.58,0.95
0.41,0.18,0.9,-0.2,-5.01,0.34
0.4,0.19,0.9,1.62,-6.5,-0.5
0.42,0.2,0.93,0.2,-3.34,-0.17
0.41,0.2,0.93,-0.32,-5.37,1.01
0.43,0.22,0.96,-3.25,-5.56,2.27
0.43,0.21,0.95,-4.35,-5.8,2.96
0.42,0.22,0.99,-8.37,-6.11,2.99
0.41,0.19,0.94,-7.6,-4.69,3.44
0.4,0.16,0.93,-5.97,-4.56,2.35
0.41,0.16,0.88,-1.86,-7.24,2.29
0.38,0.16,0.89,-1.79,-5.83,2.99
0.39,0.15,0.86,2.18,-5.56,1.82
0.41,0.15,0.85,6.24,-3.33,0.27
0.39,0.18,0.91,4.67,-5.19,-0.6
0.43,0.21,0.96,0.85,-2.76,-0.03
0.43,0.21,0.96,-0.12,-4.29,1.92
0.43,0.21,0.94,-2.15,-0.11,0.23
0.43,0.21,0.98,-5.1,-1.1,1.68
0.41,0.2,0.96,-6.06,-1.3,1.27
0.41,0.18,0.91,-4.06,-2.4,1.25
0.39,0.18,0.9,-3.63,-5.51,1.34
0.42,0.19,0.92,-5.54,-5.91,1.94
0.44,0.2,0.92,-7.98,-1.65,0.55
0.44,0.2,0.93,-8.72,0.7,0.4
0.44,0.18,0.94,-9.13,0.08,0.84
0.43,0.16,0.94,-5.59,-1.68,0.26
0.46,0.21,1.01,-7.88,-6.03,4.18
0.43,0.18,1.03,-10.67,-9.85,5.42
0.49,0.15,0.98,-13.4,-2.47,5.16
0.52,0.13,0.97,-15.37,10.78,3.89
0.5,0.14,0.99,-17.07,23.79,3.1
0.43,0.18,1.02,-17.85,27.56,3.56
0.37,0.15,1.03,-17.76,23.39,0.82
0.38,0.14,1.0,-14.96,20.0,-2.53
0.38,0.13,0.95,-12.31,16.38,-2.81
0.37,0.12,0.97,-11.76,8.08,-2.37
0.42,0.15,0.96,-13.97,4.96,-0.61
0.47,0.16,0.94,-14.64,16.23,-3.5
0.45,0.16,0.92,-13.1,20.41,-2.43
0.43,0.16,0.93,-10.23,15.18,-0.82
0.4,0.15,0.92,-6.56,13.94,0.9
0.36,0.14,0.91,-0.09,-0.38,4.37
0.37,0.14,0.91,3.27,-10.26,5.36
0.41,0.13,0.91,4.31,-14.38,6.6
0.48,0.14,0.88,5.45,-5.1,7.22
0.48,0.12,0.86,7.62,4.46,8.14
0.42,0.14,0.91,5.45,6.55,11.18
0.42,0.17,0.97,1.73,10.5,12.55
0.41,0.18,0.97,-2.37,27.76,5.82
0.32,0.19,0.97,-0.49,18.69,7.51
0.37,0.18,1.0,0.6,18.41,9.42
0.34,0.2,1.1,-6.2,12.7,12.95
0.34,0.14,1.03,-8.14,8.92,14.23
0.35,0.14,1.0,-9.68,8.66,13.63
0.38,0.11,0.95,-6.26,12.03,12.46
0.37,0.11,0.97,-6.85,11.28,13.73
0.38,0.1,0.97,-6.9,10.49,15.71
0.38,0.09,0.93,-4.96,15.22,13.15
0.38,0.1,0.98,-4.9,17.66,12.56
0.35,0.11,1.02,-5.97,15.63,13.07
0.39,0.09,0.96,-4.18,18.08,12.78
0.39,0.1,0.95,-2.58,18.18,14.53
0.39,0.09,0.94,-1.31,18.0,15.76
0.37,0.1,0.99,-1.86,15.33,18.37
0.33,0.1,0.99,-1.07,16.84,16.06
0.3,0.11,1.02,-5.31,16.46,12.55
0.29,0.1,1.01,-6.0,12.02,11.28
0.3,0.12,1.03,-8.56,6.35,11.56
0.35,0.11,1.0,-9.33,10.21,10.4
0.35,0.09,0.96,-8.29,11.85,10.0
0.34,0.07,0.96,-6.92,13.13,9.92
0.33,0.06,0.94,-4.12,12.17,11.22
0.33,0.1,1.0,-6.79,11.02,13.16
0.31,0.1,0.99,-7.05,7.97,14.43
0.27,0.07,0.94,-5.77,6.81,11.66
0.26,0.07,0.99,-7.22,3.08,10.18
0.26,0.04,0.94,-4.93,2.37,7.18
0.32,0.03,0.9,-1.24,6.43,4.78
0.28,0.04,0.91,1.19,4.23,3.79
0.27,0.04,0.91,3.77,4.14,1.33
0.27,0.04,0.91,8.12,-2.12,-1.4
0.28,0.1,0.99,4.43,-14.99,3.13
0.32,0.11,0.96,0.96,-7.76,0.61
0.32,0.1,0.96,1.01,-14.64,4.05
0.38,0.09,0.92,-1.76,-4.03,3.59
0.36,0.08,0.93,-2.76,-6.06,6.73
0.36,0.07,0.92,-4.02,-2.5,7.59
0.31,0.04,0.91,0.05,-1.62,6.92
0.35,0.05,0.91,2.92,3.92,7.11
0.33,0.08,0.97,2.18,6.81,6.58
0.31,0.08,1.0,1.79,7.51,5.63
0.29,0.11,1.04,-3.59,5.69,4.49
0.34,0.15,1.03,-6.95,3.69,3.15
0.35,0.14,0.98,-8.21,5.39,4.38
0.32,0.09,1.01,-8.81,4.66,4.49
0.33,0.07,0.98,-8.18,4.72,4.43
0.32,0.06,0.97,-7.25,2.34,5.88
0.31,0.04,0.97,-5.62,3.57,5.22
0.28,0.07,1.0,-7.21,2.0,3.66
0.28,0.07,1.0,-7.31,-3.01,4.4
0.3,0.05,0.95,-6.89,-3.04,3.08
0.34,0.09,1.01,-12.34,-1.44,4.03
0.35,0.07,0.97,-12.32,4.14,4.58
0.33,0.05,0.94,-12.63,7.97,3.21
0.32,0.06,0.97,-11.34,9.25,2.95
0.3,0.04,0.94,-10.67,7.1,2.56
0.26,0.03,0.94,-7.37,1.79,3.02
0.27,0.03,0.94,-6.4,-2.0,2.66
0.27,0.02,0.93,-4.41,-5.31,2.79
0.29,0.04,0.95,-6.09,-5.63,1.33
0.33,0.05,0.95,-6.7,-5.91,1.56
0.31,0.06,0.97,-10.47,0.53,1.51
0.3,0.05,0.95,-10.4,1.45,0.87
0.31,0.04,0.95,-10.49,5.97,-0.73
0.27,0.03,0.94,-9.85,3.79,-2.53
0.29,0.03,0.95,-9.85,7.63,-4.37
0.3,0.04,0.96,-11.05,11.65,-6.41
0.31,0.02,0.94,-9.13,11.28,-5.74
0.31,0.02,0.95,-9.04,6.37,-1.77
0.31,0.0,0.93,-6.15,10.76,-2.55
0.24,0.01,0.94,-4.24,1.86,-0.15
0.27,0.0,0.95,-3.83,2.73,-2.15
0.29,0.01,0.96,-3.53,2.84,-2.21
0.26,0.02,0.99,-3.88,0.72,-2.26
0.27,0.03,1.0,-4.87,0.15,-3.08
0.29,0.03,1.0,-6.52,0.32,-3.01
0.3,0.03,1.0,-7.98,1.51,-3.48
0.29,0.01,0.99,-9.36,3.04,-3.76
0.32,0.0,0.97,-7.68,2.64,-2.08
0.31,-0.01,0.96,-5.71,3.4,-0.92
0.3,-0.0,0.98,-4.34,3.45,-1.31
0.3,-0.0,0.99,-3.25,-0.09,1.3
0.3,-0.0,0.98,-2.79,1.73,-0.41
0.3,0.03,1.02,-4.7,0.64,-0.05
0.31,0.01,1.01,-5.77,3.24,0.29
0.3,0.01,0.98,-5.22,4.15,0.05
0.32,0.01,1.0,-6.53,5.79,-0.02
0.32,-0.01,0.96,-4.63,5.33,1.45
0.27,-0.03,0.95,-1.59,4.05,0.06
0.26,0.0,1.01,-2.81,0.5,0.53
0.26,-0.01,0.99,-2.09,-2.69,-0.17
0.25,-0.01,1.0,-1.54,-8.35,1.07
0.3,0.01,1.0,-3.15,-7.88,2.26
0.32,-0.01,0.98,-2.89,-3.68,2.55
0.32,0.0,0.97,-4.46,1.25,1.34
0.33,0.0,0.98,-5.74,4.79,1.98
0.3,-0.0,0.96,-4.92,5.76,0.98
0.28,-0.01,0.96,-4.26,3.77,0.75
0.28,-0.02,0.95,-2.55,0.05,3.24
0.28,-0.02,0.96,-3.13,0.11,2.87
0.31,-0.02,0.96,-3.79,5.13,2.15
0.3,-0.01,0.96,-4.2,9.8,0.63
0.29,-0.0,0.98,-4.35,11.11,0.84
0.3,-0.0,0.99,-5.74,12.17,1.11
0.26,-0.03,0.97,-6.03,11.88,0.76
0.24,-0.02,0.99,-5.5,6.72,1.36
0.23,-0.03,0.98,-4.23,0.79,2.24
0.25,-0.05,0.95,-1.47,0.09,1.31
0.23,-0.04,0.97,1.59,-4.15,0.85
0.22,-0.03,1.01,1.85,-9.16,0.92
0.23,-0.02,1.0,2.02,-15.21,3.76
0.24,-0.02,1.0,0.96,-14.52,0.4
0.28,-0.0,1.02,-2.38,-12.67,0.89
0.28,-0.01,0.99,-2.98,-10.67,1.16
0.3,-0.02,0.97,-2.05,-7.47,-0.31
0.28,-0.01,1.01,-2.35,-9.98,0.46
0.29,-0.02,1.0,-3.24,-11.53,0.56
0.29,-0.02,0.98,-1.88,-14.7,1.85
0.3,-0.03,0.98,-1.39,-13.48,1.3
0.32,-0.03,0.97,-0.87,-13.34,2.76
0.31,-0.03,0.96,-0.23,-11.53,2.03
0.3,-0.03,0.96,0.5,-12.12,1.82
0.28,-0.02,0.98,0.32,-13.94,1.07
0.32,-0.01,0.97,-0.72,-13.89,1.07
0.32,-0.02,0.96,0.27,-15.47,3.16
0.31,0.0,0.99,-0.64,-13.73,2.56
0.29,0.02,1.01,-2.23,-14.58,3.02
0.29,0.02,1.03,-4.11,-12.2,-0.29
0.28,0.03,1.06,-8.41,-11.94,-2.35
0.34,0.02,1.04,-12.08,-7.28,-3.39
0.31,0.02,1.05,-17.07,-8.79,-2.98
0.3,0.01,1.03,-18.89,-10.53,-2.92
0.34,-0.03,0.96,-18.38,-11.05,-2.15
0.35,-0.06,0.95,-17.01,-12.93,0.43
0.36,-0.09,0.9,-14.24,-10.67,-0.03
0.36,-0.09,0.92,-12.6,-10.34,0.47
0.32,-0.08,0.96,-12.95,-8.63,-2.81
0.36,-0.08,0.96,-12.76,-5.8,-3.33
0.36,-0.08,0.97,-14.98,3.13,-5.59
0.36,-0.09,0.98,-14.7,3.4,-4.67
0.38,-0.08,0.98,-15.22,0.76,-3.1
0.39,-0.09,0.95,-15.36,4.0,-3.37
0.37,-0.09,0.95,-12.84,0.58,-2.26
0.4,-0.1,0.93,-9.65,1.77,-1.34
0.38,-0.09,0.92,-7.42,1.85,-0.96
0.37,-0.08,0.96,-7.42,1.57,-1.05
0.37,-0.08,0.94,-5.31,0.34,-0.58
0.38,-0.08,0.94,-5.88,1.24,0.17
0.37,-0.06,0.96,-7.47,4.05,-0.47
0.33,-0.06,0.98,-8.84,3.05,-1.5
0.33,-0.08,0.98,-10.32,3.82,-3.15
0.34,-0.07,0.96,-12.58,3.98,-3.94
0.36,-0.08,0.93,-11.48,4.53,-2.17
0.37,-0.1,0.91,-10.06,12.11,-3.54
0.34,-0.08,0.95,-9.66,9.97,-1.28
0.33,-0.09,0.94,-9.11,6.75,-0.43
0.35,-0.11,0.93,-8.21,5.31,1.16
0.33,-0.11,0.91,-7.48,7.27,-0.63
0.38,-0.11,0.92,-7.21,12.44,3.27
0.36,-0.1,0.92,-4.75,7.24,3.13
0.33,-0.11,0.94,-3.79,4.31,4.34
0.37,-0.1,0.92,-2.09,7.82,3.15
0.32,-0.09,0.98,-2.58,4.31,3.51
0.33,-0.08,0.99,-3.05,5.95,2.35
0.34,-0.07,0.99,-3.86,3.44,4.38
0.35,-0.09,0.98,-4.24,5.39,4.78
0.36,-0.09,0.97,-4.14,6.32,5.73
0.34,-0.1,0.97,-4.69,8.03,4.03
0.33,-0.09,0.99,-7.68,12.4,1.69
0.35,-0.08,1.01,-12.27,18.56,-0.31
0.4,-0.04,1.05,-24.87,43.71,-3.1
0.29,-0.11,1.0,-23.25,36.0,-0.99
0.29,-0.15,0.88,-11.27,18.58,2.43
0.32,-0.16,0.9,-5.95,21.74,2.85
0.31,-0.13,0.98,-7.08,25.77,2.95
0.25,-0.13,0.99,-6.53,18.79,2.73
0.28,-0.13,0.98,-7.19,16.38,3.63
0.25,-0.13,1.01,-5.82,7.3,6.17
0.26,-0.14,0.97,-4.76,6.84,5.95
0.26,-0.15,0.98,-3.07,3.22,7.45
0.26,-0.14,0.97,-3.1,1.4,7.05
0.24,-0.15,0.99,-2.15,-2.32,6.78
0.26,-0.15,0.96,-0.26,-1.94,6.38
0.26,-0.15,0.98,-0.03,-1.85,6.14
0.27,-0.14,0.98,-0.55,0.67,4.61
0.27,-0.12,1.0,-0.81,0.92,5.62
0.24,-0.11,1.03,-3.65,-2.24,7.16
0.27,-0.13,0.98,-3.94,1.65,5.74
0.29,-0.14,0.96,-3.5,2.58,6.14
0.25,-0.15,0.97,-2.87,3.37,4.53
0.25,-0.15,0.96,-1.27,2.18,3.47
0.28,-0.15,0.93,-0.53,1.66,4.66
0.25,-0.13,1.04,-5.47,-1.18,5.82
0.26,-0.16,0.96,-2.05,-0.27,4.69
0.27,-0.14,0.97,-2.72,-2.15,5.3
0.27,-0.13,0.99,-4.09,0.87,4.03
0.25,-0.16,0.98,-4.46,1.62,3.21
0.26,-0.16,0.96,-1.66,0.61,4.08
0.25,-0.16,0.98,-2.52,-0.2,3.57
0.22,-0.14,1.0,-3.74,-2.63,1.8
0.25,-0.14,0.98,-2.99,-0.95,0.95
0.26,-0.12,1.02,-8.53,-1.01,1.86
0.27,-0.16,0.95,-4.84,-3.39,3.39
0.24,-0.16,0.96,-5.51,-7.13,3.65
0.26,-0.17,0.94,-4.12,-0.69,-0.26
0.28,-0.16,0.96,-4.99,3.15,-2.21
0.27,-0.18,0.94,-2.63,-0.17,-0.64
0.29,-0.16,0.95,-4.02,0.34,-0.34
0.3,-0.16,0.96,-2.5,-0.93,2.52
0.27,-0.14,0.98,-2.81,-0.43,2.31
0.26,-0.15,1.0,-3.07,-2.14,2.53
0.27,-0.16,0.98,-2.75,-2.26,2.21
0.29,-0.18,0.96,-3.8,1.66,0.84
0.28,-0.16,0.98,-4.89,-0.61,3.25
0.26,-0.18,0.95,-4.75,3.83,0.27
0.27,-0.15,1.01,-8.89,5.8,0.4
0.27,-0.17,0.99,-13.22,17.28,-6.47
0.23,-0.16,1.04,-20.75,32.32,-9.59
0.29,-0.11,1.09,-34.27,43.95,-10.9
0.17,-0.24,0.91,-25.16,30.02,-12.98
0.23,-0.19,0.93,-23.02,31.85,-11.66
0.23,-0.19,0.98,-21.71,23.85,-4.89
0.21,-0.21,0.91,-18.64,16.37,-5.83
0.17,-0.23,0.89,-8.49,0.89,-1.97
0.21,-0.21,0.94,-7.48,-2.85,0.75
0.2,-0.21,0.97,-7.48,-8.47,2.9
0.23,-0.22,0.93,-5.88,-2.32,2.06
0.21,-0.22,0.97,-6.21,1.92,0.14
0.17,-0.24,0.99,-6.47,-1.94,-1.56
0.19,-0.22,1.0,-6.72,-0.12,-2.09
0.2,-0.21,1.05,-8.67,-7.02,-0.7
0.24,-0.24,0.99,-7.19,-8.93,0.82
0.23,-0.24,0.99,-6.4,-8.05,-0.15
0.25,-0.21,1.1,-14.11,-2.81,-2.55
0.26,-0.23,1.03,-13.1,2.96,-2.31
0.26,-0.23,1.01,-10.93,-3.34,1.02
0.27,-0.24,1.03,-11.22,0.49,1.97
0.25,-0.25,0.99,-11.18,8.63,-0.17
0.18,-0.23,1.05,-12.56,3.66,-2.14
0.19,-0.25,1.01,-9.95,-7.86,1.56
0.23,-0.26,0.92,-5.4,-8.6,2.27
0.24,-0.27,0.93,-2.69,-8.55,3.02
0.27,-0.26,0.9,1.74,-6.92,3.86
0.25,-0.27,0.88,9.15,-14.61,7.15
0.26,-0.26,0.85,16.32,-12.73,6.93
0.27,-0.25,0.87,20.14,-12.84,8.7
0.31,-0.24,0.91,25.25,-4.32,9.77
0.31,-0.21,0.99,14.67,7.02,8.11
0.27,-0.2,0.95,7.73,10.46,5.88
0.23,-0.22,0.93,5.76,8.87,4.34
0.17,-0.24,0.9,7.33,8.21,-1.37
0.19,-0.23,0.93,8.99,8.9,-4.6
0.26,-0.18,1.0,5.16,12.82,-5.68
0.25,-0.18,1.02,3.39,9.88,-1.77
0.26,-0.21,0.96,7.24,7.76,0.9
0.26,-0.22,0.97,12.0,5.31,4.67
0.24,-0.19,1.02,11.53,4.38,5.54
0.24,-0.22,1.0,12.61,3.66,7.15
0.22,-0.2,0.99,12.99,6.11,5.08
0.18,-0.16,1.11,6.96,-0.06,5.88
0.21,-0.17,1.06,4.98,2.56,2.55
0.2,-0.15,1.07,0.81,-0.73,2.18
0.23,-0.17,1.02,0.6,-1.82,2.44
0.26,-0.19,0.98,3.08,0.02,2.96
0.24,-0.2,0.97,5.73,-2.24,5.63
0.25,-0.2,0.97,6.55,2.08,4.31
0.21,-0.17,1.02,4.52,-1.59,6.14
0.23,-0.18,0.96,5.68,2.4,4.21
0.19,-0.17,0.99,6.61,-0.6,5.24
0.19,-0.16,1.0,2.46,-0.6,3.65
0.16,-0.14,1.03,-0.03,-6.55,4.79
0.2,-0.16,0.96,0.11,-8.41,4.95
0.24,-0.18,0.94,-0.87,-4.81,5.34
0.24,-0.18,0.94,-3.85,-4.46,7.24
0.21,-0.2,0.92,-3.25,-1.28,5.34
0.2,-0.2,0.93,-2.47,3.13,2.56
0.2,-0.19,0.98,-5.21,6.67,0.21
0.21,-0.21,0.94,-4.17,4.31,1.71
0.24,-0.2,0.91,-2.53,3.4,3.47
0.21,-0.2,0.92,-0.85,4.15,3.6
0.21,-0.21,0.95,-2.61,7.15,0.44
0.17,-0.2,0.96,-1.28,4.32,0.23
0.22,-0.19,0.97,-1.92,5.24,0.7
0.2,-0.18,1.01,-3.86,1.66,1.63
0.22,-0.22,0.95,-1.39,3.83,0.63
0.22,-0.22,0.96,-0.46,3.76,1.89
0.18,-0.2,1.01,-0.4,0.12,0.89
0.19,-0.19,1.0,-0.18,-2.53,1.95
0.2,-0.19,1.0,1.19,-6.05,2.32
0.23,-0.2,0.98,1.27,0.55,1.94
0.23,-0.19,0.98,2.41,0.96,2.79
0.2,-0.19,0.99,2.0,2.47,1.25
0.18,-0.16,1.05,-0.76,-2.2,1.33
0.19,-0.18,1.0,0.24,-4.99,1.69
0.21,-0.17,1.0,-0.69,-5.5,2.79
0.22,-0.19,0.99,-0.4,-3.18,2.23
0.21,-0.19,0.98,-0.5,-3.13,1.56
0.2,-0.22,0.96,3.22,-4.58,2.93
0.19,-0.19,1.01,0.76,-8.4,2.75
0.19,-0.21,0.98,1.21,-12.53,4.76
0.21,-0.21,0.93,4.08,-14.56,5.24
0.22,-0.19,0.97,4.55,-14.52,5.34
0.22,-0.2,0.97,4.98,-16.02,5.98
0.23,-0.2,0.96,4.06,-13.59,4.21
0.24,-0.21,0.96,2.75,-11.44,3.28
0.26,-0.21,0.97,2.76,-6.85,1.3
0.23,-0.22,0.94,4.76,-5.92,0.6
0.25,-0.23,0.94,6.12,-2.99,-0.6
0.27,-0.22,0.96,7.02,-0.99,0.05
0.23,-0.2,0.96,7.97,-1.92,-0.46
0.21,-0.19,0.99,7.24,-5.39,0.27
0.21,-0.19,0.99,7.76,-10.5,1.76
0.22,-0.19,0.98,8.89,-15.31,3.68
0.23,-0.18,0.98,9.82,-19.04,5.68
0.25,-0.18,0.97,11.18,-20.56,6.18
