accl_x,accl_y,accl_z,gyro_x,gyro_y,gyro_z
0.31,-0.33,0.84,21.8,-2.75,-27.63
0.32,-0.33,0.81,23.94,-7.77,-29.56
0.33,-0.32,0.75,29.19,-6.55,-31.1
0.33,-0.3,0.77,32.24,-8.18,-33.47
0.36,-0.25,0.8,32.84,-11.22,-32.72
0.41,-0.24,0.8,33.19,-3.79,-34.53
0.4,-0.21,0.86,31.4,-15.65,-25.19
0.43,-0.21,0.81,32.0,-8.79,-28.15
0.4,-0.21,0.79,34.24,2.35,-35.86
0.4,-0.19,0.79,34.63,10.82,-41.25
0.37,-0.15,0.85,35.91,3.15,-40.64
0.42,-0.12,0.84,35.48,1.36,-41.6
0.44,-0.11,0.84,33.3,3.45,-38.61
0.41,-0.11,0.83,32.52,0.78,-40.06
0.42,-0.13,0.82,30.75,3.36,-40.15
0.4,-0.11,0.82,30.49,1.39,-37.82
0.41,-0.11,0.77,32.73,3.02,-39.33
0.39,-0.11,0.75,34.32,7.13,-39.44
0.37,-0.11,0.79,31.85,5.94,-40.85
0.34,-0.13,0.73,28.67,1.27,-41.15
0.3,-0.18,0.63,31.89,3.73,-47.44
0.3,-0.17,0.54,39.48,16.05,-55.48
0.28,-0.18,0.54,48.5,18.96,-67.95
0.27,-0.08,0.55,58.66,16.87,-71.27
0.35,-0.0,0.57,58.95,18.58,-69.3
0.33,0.02,0.56,63.42,26.0,-71.86
0.34,0.07,0.54,60.47,23.77,-78.43
0.36,0.04,0.52,71.5,23.1,-73.71
0.32,0.2,0.61,78.53,18.23,-77.1
0.4,0.35,0.62,88.24,26.27,-81.4
0.47,0.52,0.86,84.56,34.67,-79.71
0.43,0.68,1.24,59.18,17.95,-81.6
0.48,0.62,1.39,65.36,-6.38,-51.59
0.51,0.7,1.38,56.78,-15.19,-32.35
0.47,0.69,1.49,36.06,-29.37,-31.97
0.45,0.71,1.55,9.4,-68.49,-20.43
0.51,0.66,1.49,16.95,-69.27,-22.03
0.55,0.65,1.45,22.37,-72.53,-23.59
0.65,0.66,1.43,31.04,-74.17,-15.36
0.69,0.61,1.34,28.2,-78.15,-9.76
0.79,0.56,1.16,22.81,-61.54,-11.36
0.78,0.51,1.06,16.58,-44.47,-8.46
0.75,0.46,0.97,10.21,-33.22,-2.93
0.72,0.4,0.8,5.97,-13.27,-5.76
0.67,0.36,0.69,3.27,7.56,-8.17
0.58,0.32,0.67,2.35,16.63,-7.68
0.48,0.27,0.64,4.34,21.48,-9.63
0.36,0.2,0.56,9.1,23.05,-14.85
0.36,0.18,0.5,14.96,15.11,-16.61
0.35,0.16,0.5,20.47,12.15,-19.74
0.32,0.18,0.55,22.81,5.95,-16.9
0.37,0.21,0.54,24.49,3.24,-21.37
0.43,0.17,0.51,29.76,11.47,-25.31
0.45,0.22,0.49,37.15,17.74,-19.71
0.43,0.21,0.56,41.07,20.29,-28.34
0.34,0.27,0.73,44.4,6.69,-20.85
0.33,0.42,0.8,39.02,-4.85,-30.72
0.37,0.4,0.8,29.25,-18.7,-27.53
0.43,0.42,0.84,28.82,-8.17,-35.71
0.5,0.52,0.97,25.48,-9.63,-45.95
0.54,0.55,1.08,15.24,-5.89,-39.69
0.67,0.74,1.17,-2.58,10.96,-41.83
0.72,0.68,1.29,-17.82,9.88,-21.25
0.66,0.64,1.21,-16.23,11.21,-7.47
0.55,0.58,1.15,-8.49,18.05,-9.11
0.42,0.58,1.18,-15.11,10.79,-3.19
0.46,0.64,1.36,-29.28,11.6,-4.95
0.55,0.65,1.31,-46.66,21.85,-8.24
0.41,0.56,1.34,-60.03,18.12,-5.83
0.52,0.67,1.29,-69.02,12.89,8.38
0.5,0.61,1.19,-67.92,-0.08,11.22
0.53,0.61,1.12,-67.57,4.46,16.67
0.56,0.62,1.18,-74.06,9.57,22.58
0.51,0.63,1.26,-81.05,0.56,28.75
0.51,0.6,1.24,-81.73,-13.02,35.15
0.51,0.56,1.23,-83.59,-22.79,44.79
0.51,0.51,1.13,-82.14,-26.96,50.0
0.45,0.41,1.0,-71.4,-30.7,56.21
0.42,0.31,0.94,-64.63,-19.18,53.59
0.43,0.28,0.87,-59.21,-3.33,49.68
0.38,0.19,0.79,-59.77,10.73,41.07
0.34,0.14,0.7,-52.61,16.44,34.7
0.33,0.09,0.6,-42.32,22.44,29.54
0.32,0.01,0.55,-25.88,27.07,27.4
0.3,-0.02,0.49,-2.64,29.11,25.1
0.25,-0.01,0.54,9.71,24.44,18.93
0.18,0.02,0.71,14.72,0.27,20.56
0.2,0.08,0.77,11.13,-13.57,17.04
0.3,0.05,0.7,15.57,-8.9,6.41
0.27,0.11,0.69,25.51,-11.28,5.37
0.36,0.09,0.65,38.21,-9.69,-0.11
0.48,0.04,0.64,48.26,-2.2,2.02
0.39,0.13,0.77,52.21,-14.76,4.89
0.45,0.22,0.87,40.89,-6.18,6.7
0.5,0.21,0.93,30.15,-0.05,8.53
0.52,0.22,0.91,22.81,7.91,7.21
0.52,0.17,0.85,24.26,21.39,8.64
0.45,0.17,0.85,31.51,18.47,8.89
0.5,0.19,0.86,33.76,24.96,5.86
0.48,0.23,1.0,24.4,21.39,10.81
0.45,0.24,1.02,15.36,11.79,15.13
0.42,0.25,1.07,5.08,8.2,13.22
0.42,0.24,1.0,2.17,3.44,12.12
0.44,0.23,0.93,0.52,10.98,7.44
0.45,0.25,0.94,1.3,9.97,7.66
0.46,0.23,0.96,3.18,7.56,11.73
0.43,0.22,0.93,4.76,1.66,15.16
0.39,0.21,0.93,6.15,-6.31,17.95
0.39,0.2,0.9,4.2,-13.98,19.59
0.4,0.21,0.89,1.74,-14.66,16.55
0.44,0.21,0.87,-2.82,-12.56,14.03
0.5,0.21,0.82,-2.9,-0.64,14.02
0.46,0.19,0.81,1.86,2.92,11.56
0.42,0.2,0.82,5.15,-1.28,11.27
0.42,0.28,0.9,0.79,1.15,15.01
0.4,0.23,0.96,-10.06,-2.14,13.59
0.4,0.21,0.92,-13.86,-2.41,9.33
0.4,0.21,0.88,-12.43,-1.98,7.69
0.42,0.2,0.88,-9.34,0.0,10.11
0.42,0.19,0.86,-5.8,-3.42,10.81
0.41,0.17,0.84,0.85,-0.5,10.4
0.4,0.18,0.84,1.54,1.11,7.73
0.4,0.19,0.9,2.75,-0.43,4.52
0.42,0.19,0.92,2.55,-2.72,3.74
0.44,0.23,0.93,-1.5,1.37,5.42
0.42,0.23,0.98,-4.41,-7.74,8.15
0.44,0.2,0.92,-6.37,-5.94,8.32
0.47,0.21,0.92,-9.36,4.55,5.47
0.45,0.21,0.92,-11.76,7.97,2.46
0.44,0.22,0.93,-12.08,4.17,1.69
0.45,0.21,0.91,-9.89,0.37,2.79
0.44,0.2,0.9,-7.57,-3.73,2.98
0.47,0.2,0.9,-7.77,-1.54,4.11
0.45,0.23,0.95,-11.34,-2.43,5.3
0.46,0.21,0.9,-11.71,-4.08,4.41
0.48,0.18,0.87,-10.72,-3.3,6.66
0.47,0.17,0.86,-10.49,-2.46,7.76
0.49,0.18,0.86,-8.95,0.81,6.85
0.46,0.18,0.87,-7.76,-2.35,5.42
0.48,0.18,0.86,-7.47,9.77,4.12
0.5,0.19,0.87,-10.75,12.58,2.85
0.45,0.19,0.9,-9.69,4.44,7.83
0.45,0.18,0.92,-9.83,-0.92,10.32
0.44,0.16,0.89,-8.12,-1.01,7.86
0.45,0.17,0.91,-9.85,-2.49,10.12
0.45,0.18,0.91,-11.94,-2.03,8.79
0.48,0.17,0.89,-12.23,1.08,6.02
0.48,0.14,0.87,-11.24,5.19,3.95
0.48,0.14,0.85,-5.57,5.36,5.54
0.48,0.14,0.89,-6.47,5.92,8.11
0.45,0.16,0.95,-6.78,-2.82,10.09
0.47,0.17,0.96,-9.98,-7.13,12.67
0.46,0.15,0.93,-9.83,-10.29,12.75
0.47,0.14,0.9,-10.11,-6.55,12.72
0.47,0.13,0.9,-13.11,0.26,8.38
0.46,0.14,0.91,-14.43,3.68,6.11
0.48,0.12,0.9,-14.0,5.76,6.66
0.47,0.11,0.88,-9.6,4.43,8.38
0.46,0.09,0.89,-6.47,1.47,10.21
0.44,0.1,0.88,-4.23,-2.27,10.66
0.44,0.1,0.89,-5.22,-0.05,11.92
0.44,0.11,0.92,-6.37,-1.25,10.9
0.44,0.11,0.9,-7.79,-0.87,10.46
0.45,0.12,0.94,-11.16,1.65,10.93
0.45,0.11,0.92,-13.28,4.02,8.7
0.43,0.1,0.93,-12.53,1.31,8.84
0.43,0.08,0.92,-11.31,-2.5,9.71
0.46,0.07,0.88,-9.57,0.43,9.71
0.44,0.05,0.88,-7.36,3.69,6.79
0.43,0.06,0.9,-6.05,-1.56,8.0
0.45,0.08,0.9,-5.21,-6.02,11.16
0.46,0.08,0.91,-5.63,-3.1,9.08
0.46,0.07,0.89,-6.92,-4.15,9.54
0.46,0.05,0.89,-6.52,3.86,6.49
0.41,0.06,0.95,-8.37,-0.43,3.77
0.4,0.05,0.91,-8.38,-1.71,4.98
0.46,0.07,0.92,-10.18,1.16,5.62
0.45,0.06,0.91,-9.53,3.94,5.01
0.45,0.05,0.92,-8.56,0.55,4.49
0.47,0.06,0.93,-8.03,-3.37,6.72
0.48,0.06,0.91,-6.63,-2.23,6.82
0.44,0.05,0.93,-6.63,-2.9,5.97
0.44,0.06,0.95,-7.28,0.27,1.74
0.47,0.07,0.95,-9.3,0.63,1.59
0.48,0.07,0.94,-9.88,-0.31,4.37
0.5,0.07,0.91,-9.6,1.42,6.9
0.49,0.06,0.93,-8.41,-2.46,9.19
0.49,0.05,0.91,-8.61,-1.33,10.79
0.48,0.04,0.93,-9.48,0.32,8.08
0.47,0.04,0.92,-12.18,0.98,9.59
0.46,0.01,0.9,-13.51,3.56,7.01
0.45,0.0,0.88,-13.3,9.37,4.66
0.42,0.0,0.91,-10.69,4.34,5.04
0.41,-0.01,0.88,-7.07,-2.43,7.25
0.43,-0.02,0.88,-5.44,-1.45,9.69
0.44,-0.04,0.87,-3.79,1.63,6.41
0.42,-0.04,0.87,-1.34,1.05,4.52
0.43,-0.04,0.88,1.69,0.24,3.92
0.44,-0.03,0.87,3.19,0.24,4.9
0.46,-0.03,0.87,3.69,4.49,5.47
0.42,-0.02,0.9,6.66,4.78,9.18
0.45,-0.03,0.9,4.85,7.31,12.26
0.45,-0.05,0.9,0.26,10.98,12.75
0.48,-0.07,0.9,-0.43,18.5,18.11
0.5,-0.06,0.95,-3.63,27.53,7.34
0.49,0.02,1.08,-13.44,14.31,10.73
0.52,0.05,1.09,-18.78,5.91,13.77
0.51,0.04,1.01,-13.74,7.48,19.69
0.53,0.03,0.99,-14.08,14.6,22.66
0.45,0.01,0.97,-13.22,16.5,19.28
0.4,-0.01,0.95,-12.06,15.95,14.95
0.4,-0.02,0.94,-10.23,15.85,8.5
0.4,-0.02,0.92,-8.05,9.11,6.78
0.39,-0.01,0.93,-8.09,3.6,6.41
0.38,-0.02,0.92,-7.51,-3.11,9.36
0.37,-0.01,0.92,-7.83,-7.94,11.83
0.37,-0.02,0.9,-8.26,-6.26,10.06
0.37,-0.03,0.88,-9.21,-1.54,5.62
0.37,-0.03,0.89,-10.24,-1.25,3.22
0.41,-0.03,0.87,-10.61,0.49,2.56
0.39,-0.05,0.85,-7.5,-0.4,1.79
0.39,-0.06,0.84,-3.95,-4.34,2.35
0.41,-0.05,0.86,-2.08,-3.16,4.38
0.43,-0.06,0.86,0.76,-1.36,3.86
0.41,-0.04,0.92,-0.38,-4.26,4.9
0.42,-0.04,0.95,-0.14,-9.85,6.2
0.43,-0.04,0.93,-0.02,-9.22,7.19
0.45,-0.04,0.92,-0.37,-6.7,6.38
0.46,-0.06,0.94,-0.52,-4.84,3.71
0.49,-0.05,0.94,-1.98,0.38,4.05
0.48,-0.04,0.95,-2.46,5.59,6.82
0.45,-0.03,0.96,-1.83,4.99,8.95
0.41,-0.03,1.01,-6.52,2.85,9.27
0.42,-0.03,1.03,-12.67,3.01,8.31
0.45,-0.03,0.98,-15.05,8.47,10.96
0.43,-0.06,0.96,-14.49,11.76,12.03
0.41,-0.07,0.97,-11.94,7.56,11.48
0.4,-0.08,0.95,-10.32,7.45,8.76
0.39,-0.1,0.95,-8.6,10.56,4.56
0.35,-0.1,0.98,-6.08,4.29,2.85
0.42,-0.1,0.98,-6.38,3.5,1.77
0.42,-0.1,1.0,-6.72,3.08,1.25
0.43,-0.07,1.04,-9.98,-3.18,4.03
0.45,-0.07,1.02,-14.03,-0.82,6.02
0.47,-0.07,0.99,-18.44,4.12,6.99
0.45,-0.08,0.99,-21.3,7.18,7.65
0.41,-0.1,0.95,-20.35,10.49,3.95
0.41,-0.1,0.95,-20.5,7.73,4.78
0.42,-0.12,0.93,-19.73,6.38,6.06
0.4,-0.12,0.93,-17.51,2.53,7.25
0.39,-0.13,0.91,-15.94,-3.24,8.43
0.38,-0.13,0.91,-14.49,-3.98,6.38
0.39,-0.13,0.88,-14.69,-2.67,4.08
0.38,-0.14,0.87,-16.69,1.86,1.63
0.38,-0.15,0.87,-13.63,2.5,-1.54
0.37,-0.16,0.85,-10.03,-3.08,-0.93
0.39,-0.15,0.86,-7.6,-3.59,-0.78
0.39,-0.15,0.85,-5.59,-6.15,-0.4
0.38,-0.15,0.85,-3.62,-9.36,0.09
0.4,-0.14,0.85,-0.99,-14.24,1.51
0.43,-0.12,0.86,-1.83,-14.2,3.59
0.45,-0.12,0.87,-2.49,-8.58,2.53
0.44,-0.1,0.86,-3.83,-3.63,5.02
0.43,-0.11,0.87,-3.77,-1.91,6.72
0.42,-0.11,0.89,-5.07,-2.75,7.86
0.41,-0.12,0.88,-4.84,-4.52,7.45
0.44,-0.14,0.84,-1.95,-3.02,7.3
0.43,-0.15,0.85,2.38,-2.58,6.52
0.45,-0.16,0.87,3.79,-4.21,5.24
0.49,-0.12,0.87,2.52,-0.43,7.01
0.5,-0.1,0.91,-0.44,3.97,9.19
0.49,-0.11,0.91,-1.04,6.08,11.4
0.44,-0.13,0.92,-0.43,7.42,13.5
0.42,-0.12,0.93,-1.01,8.84,13.69
0.4,-0.14,0.92,-0.32,12.0,10.69
0.38,-0.13,0.97,-0.52,11.01,9.05
0.38,-0.14,0.97,1.19,7.45,10.0
0.39,-0.15,0.97,1.45,6.96,10.58
0.39,-0.13,1.03,0.41,0.03,13.76
0.41,-0.13,1.0,-2.15,2.69,13.22
0.35,-0.14,1.03,-6.95,2.05,9.57
0.33,-0.14,1.04,-11.36,-0.98,6.89
0.36,-0.16,1.01,-12.27,-4.55,6.34
0.35,-0.19,0.97,-11.04,-3.22,6.41
0.34,-0.22,0.96,-11.47,-5.65,5.02
0.33,-0.24,0.95,-12.02,-5.69,3.5
0.35,-0.27,0.93,-12.87,-1.3,3.47
0.33,-0.31,0.89,-9.88,-2.11,0.56
0.36,-0.32,0.88,-7.37,-1.18,-0.72
0.36,-0.31,0.87,-3.28,-2.82,-2.89
0.36,-0.28,0.89,-0.63,-2.69,-5.18
0.35,-0.24,0.96,-0.53,-11.42,-5.85
0.39,-0.2,0.96,-2.73,-12.6,-5.27
0.42,-0.17,0.94,-4.75,-9.02,-5.5
0.42,-0.14,0.96,-7.59,-11.77,-3.57
0.46,-0.12,0.93,-9.85,-11.33,-3.59
0.46,-0.12,0.9,-10.21,-5.83,-5.47
0.47,-0.12,0.9,-10.92,-3.36,-5.66
0.46,-0.12,0.89,-12.89,-2.78,-4.75
0.46,-0.12,0.91,-12.18,-8.81,-0.03
0.48,-0.13,0.88,-11.28,-12.35,3.37
0.48,-0.15,0.83,-11.18,-7.4,2.73
0.44,-0.18,0.84,-12.78,-5.98,1.53
0.43,-0.2,0.82,-10.52,-4.92,-0.63
0.46,-0.22,0.79,-6.53,-2.78,-1.24
0.43,-0.23,0.77,-2.14,-2.89,0.35
0.42,-0.23,0.78,1.44,-5.45,1.34
0.42,-0.23,0.79,3.24,-8.0,2.32
0.39,-0.25,0.78,6.37,-12.67,2.89
0.4,-0.25,0.79,8.26,-12.79,2.92
0.41,-0.25,0.76,8.78,-5.4,3.89
0.36,-0.26,0.78,9.31,-0.15,-0.27
0.32,-0.28,0.82,11.47,-3.65,-1.19
0.32,-0.3,0.78,15.51,-4.37,-3.57
0.3,-0.3,0.79,20.38,-8.66,-7.65
0.37,-0.3,0.75,23.79,-5.95,-12.73
0.38,-0.27,0.81,28.95,0.64,-18.41
0.4,-0.2,0.89,28.43,-9.82,-18.15
0.48,-0.18,0.91,31.39,-7.21,-17.22
0.53,-0.12,0.96,29.28,-6.43,-14.15
0.54,-0.1,1.01,25.25,-9.01,-11.13
0.57,-0.09,0.98,20.38,0.08,-10.6
0.51,-0.09,1.0,17.53,1.76,-12.21
0.49,-0.09,1.01,17.02,-2.55,-11.63
0.53,-0.08,0.97,15.79,2.21,-10.2
0.51,-0.07,1.0,15.51,-0.64,-8.85
0.49,-0.06,1.03,12.93,-3.53,-7.25
0.51,-0.05,1.01,9.74,-1.34,-6.55
0.5,-0.04,1.0,4.72,4.06,-6.43
0.42,-0.05,1.01,1.22,-1.44,-6.12
0.44,-0.06,0.99,1.45,-3.86,-6.81
0.48,-0.08,0.97,-0.55,-3.15,-7.07
0.48,-0.09,0.95,-1.86,-1.59,-6.75
0.49,-0.08,0.94,-2.95,0.73,-6.43
0.48,-0.09,0.92,-1.05,-1.69,-4.75
0.48,-0.09,0.94,-0.55,-5.74,-2.99
0.49,-0.09,0.91,-1.37,-6.56,-3.22
0.49,-0.11,0.89,-0.67,-3.15,-3.36
0.49,-0.1,0.9,-0.7,-1.62,-3.18
0.46,-0.11,0.91,-0.58,-0.95,-5.3
0.48,-0.1,0.92,-0.92,-1.71,-3.65
0.49,-0.11,0.9,-0.89,-3.19,-2.26
0.48,-0.12,0.89,-0.95,-4.14,0.08
0.48,-0.12,0.88,-1.11,-2.41,-0.69
0.46,-0.12,0.89,-0.11,-2.9,-1.83
0.48,-0.11,0.89,0.64,0.09,-2.87
0.47,-0.11,0.89,0.31,2.82,-4.08
0.45,-0.1,0.91,0.41,3.24,-3.21
0.47,-0.09,0.91,0.31,4.03,-3.45
0.44,-0.12,0.93,0.38,1.54,-4.69
0.46,-0.1,0.92,-0.11,-2.78,-4.5
0.49,-0.12,0.9,0.76,-1.11,-3.88
0.49,-0.1,0.93,-0.81,-2.47,-2.24
0.47,-0.1,0.92,-1.97,-2.67,-0.78
0.47,-0.11,0.91,-2.93,2.78,-1.79
0.44,-0.12,0.92,-3.42,3.65,-4.9
0.44,-0.1,0.93,-4.81,2.89,-5.5
0.46,-0.09,0.94,-5.05,-0.47,-5.57
0.48,-0.09,0.93,-4.23,-3.65,-2.4
0.51,-0.09,0.92,-4.79,-2.85,0.64
0.48,-0.11,0.91,-4.29,-3.53,1.02
0.46,-0.12,0.89,-3.53,-1.97,-0.32
0.48,-0.13,0.87,-2.47,2.55,-2.06
0.46,-0.12,0.9,-1.21,1.15,-2.27
0.47,-0.12,0.9,-1.39,-2.2,-2.35
0.47,-0.11,0.88,-3.97,-4.49,-1.94
0.49,-0.13,0.88,-1.68,-4.99,-0.64
