accl_x,accl_y,accl_z,gyro_x,gyro_y,gyro_z
0.12,-0.12,0.95,25.65,3.65,-3.85
0.1,-0.12,0.99,25.83,6.15,-4.06
0.08,-0.11,1.06,23.15,1.47,-3.54
0.09,-0.11,1.06,20.5,1.85,-2.5
0.06,-0.1,1.07,17.62,-1.28,-1.8
0.08,-0.1,1.06,17.22,1.51,-2.02
0.08,-0.1,1.08,14.63,-0.96,-1.51
0.09,-0.08,1.06,13.54,-0.87,0.63
0.07,-0.09,1.05,14.34,1.15,1.1
0.06,-0.1,1.05,14.81,-0.11,0.34
0.06,-0.08,1.08,12.52,-0.44,0.95
0.02,-0.09,1.09,10.34,-4.89,0.29
0.03,-0.09,1.07,9.21,-9.07,0.37
0.03,-0.1,1.04,8.27,-10.79,-0.69
0.02,-0.11,1.01,7.66,-9.59,-3.02
0.04,-0.09,1.02,8.27,-10.55,-3.98
0.04,-0.09,1.02,8.27,-11.92,-4.78
0.04,-0.09,1.03,6.79,-11.73,-5.57
0.09,-0.08,1.0,7.53,-6.9,-4.27
0.09,-0.09,0.99,9.63,-6.96,-2.7
0.07,-0.09,1.01,11.4,-8.31,-2.53
0.04,-0.07,1.04,10.52,-10.24,-4.23
0.05,-0.06,1.08,7.47,-8.61,-5.13
0.08,-0.06,1.03,5.91,-3.65,-6.02
0.08,-0.06,1.02,8.47,-3.07,-4.24
0.09,-0.06,1.03,9.4,-1.98,-3.16
0.05,-0.06,1.05,9.24,-0.26,-4.32
0.04,-0.05,1.07,7.94,-3.98,-5.21
0.07,-0.05,1.06,6.6,-4.61,-5.45
0.09,-0.06,1.01,6.85,-4.34,-5.63
0.08,-0.05,1.02,6.06,-1.11,-6.34
0.1,-0.05,1.0,7.8,1.62,-6.23
0.09,-0.05,1.0,9.21,1.89,-5.98
0.07,-0.05,1.04,6.85,-0.03,-6.17
0.08,-0.04,1.02,6.23,-0.34,-6.35
0.09,-0.04,0.98,6.64,-0.84,-6.08
0.11,-0.03,0.97,7.62,-1.62,-4.98
0.1,-0.04,0.94,9.8,0.56,-5.18
0.1,-0.03,0.98,8.5,-2.52,-5.01
0.08,-0.03,0.97,7.98,-6.24,-5.73
0.13,-0.03,0.93,9.34,-0.9,-5.3
0.13,-0.03,0.95,9.57,-1.15,-4.05
0.09,-0.02,0.96,9.8,-5.1,-3.73
0.12,-0.01,0.95,10.78,-2.84,-3.24
0.12,-0.01,0.96,9.98,-0.21,-3.94
0.11,-0.01,0.96,10.44,-1.4,-3.33
0.12,-0.01,0.95,11.62,-0.95,-3.02
0.11,-0.01,0.98,11.25,-1.97,-2.87
0.11,0.0,1.0,11.6,-4.24,-2.09
0.1,-0.01,0.99,12.93,-6.85,-1.68
0.11,-0.0,0.99,13.95,-4.12,-1.6
0.1,-0.01,1.02,12.34,-2.2,-2.24
0.11,0.0,1.01,12.98,0.0,-3.37
0.12,-0.01,1.01,14.58,2.49,-3.1
0.09,0.0,1.04,12.89,-1.42,-2.67
0.08,0.01,1.05,12.49,-2.56,-3.47
0.09,0.01,1.06,11.79,-1.68,-3.62
0.08,0.02,1.08,10.12,-2.18,-4.14
0.09,0.01,1.08,9.37,-2.44,-4.61
0.1,0.02,1.07,7.65,0.2,-5.21
0.12,0.02,1.06,6.93,0.21,-4.47
0.12,0.02,1.06,7.08,-4.27,-3.11
0.09,0.01,1.09,5.57,-5.27,-4.08
0.12,0.02,1.03,5.37,3.57,-5.05
0.13,0.02,1.02,6.11,5.16,-4.18
0.12,0.03,1.01,7.82,4.49,-3.34
0.13,0.02,1.03,8.56,5.31,-2.5
0.14,0.04,1.02,9.92,8.78,-1.27
0.1,0.04,1.04,9.42,3.59,-0.82
0.08,0.04,1.06,8.6,2.08,-2.21
0.09,0.05,1.07,6.32,4.78,-3.16
0.1,0.06,1.07,4.81,4.85,-3.05
0.1,0.05,1.07,4.41,2.08,-1.97
0.11,0.05,1.04,4.98,2.82,-0.38
0.09,0.04,1.06,4.08,3.11,-1.39
0.08,0.05,1.06,3.13,3.34,-2.23
0.08,0.05,1.06,1.92,1.36,-2.47
0.09,0.04,1.03,1.91,0.82,-2.29
0.11,0.04,1.02,1.97,3.05,-1.53
0.11,0.04,1.01,1.4,3.11,-0.6
0.11,0.03,1.0,1.91,2.46,0.67
0.1,0.03,1.0,2.41,2.52,0.79
0.09,0.03,1.01,2.47,2.38,0.82
0.09,0.05,1.02,0.92,4.11,0.38
0.06,0.05,1.02,1.01,5.19,-1.3
0.1,0.05,1.0,-0.64,8.96,-1.48
0.1,0.06,0.99,-0.63,7.79,-0.7
0.09,0.06,0.99,0.73,3.16,1.08
0.08,0.05,0.97,2.41,2.27,0.41
0.08,0.06,0.97,4.52,3.37,-1.13
0.07,0.06,0.97,5.39,2.32,-2.41
0.1,0.07,0.99,5.65,1.76,-1.82
0.1,0.08,0.98,6.7,-0.37,-1.24
0.08,0.08,1.0,5.68,-4.02,-1.13
0.1,0.07,0.97,5.47,-0.2,-0.99
0.1,0.08,0.98,4.18,0.49,-0.85
0.09,0.08,1.0,2.23,-3.59,-0.58
0.12,0.08,0.96,1.82,-3.1,1.34
0.13,0.07,0.95,1.6,-0.49,2.92
0.13,0.07,0.94,1.74,3.18,3.4
0.1,0.06,0.96,1.94,3.28,3.57
0.07,0.06,0.97,3.3,2.66,2.4
0.06,0.07,1.02,1.04,-0.52,2.56
0.05,0.09,1.04,-2.87,-8.0,2.12
0.09,0.09,1.0,-3.04,-6.03,3.97
0.08,0.07,1.08,-11.4,-9.39,1.73
0.13,0.06,1.01,-14.58,-3.5,1.89
0.09,0.05,1.02,-16.32,-3.68,1.56
0.09,0.04,0.99,-17.73,-8.52,2.12
0.13,0.07,0.96,-19.54,-6.27,1.42
0.13,0.03,0.91,-10.24,-3.51,3.44
0.15,0.01,0.96,-9.24,-0.9,8.32
0.1,-0.02,0.92,-1.56,1.21,6.53
0.03,0.03,1.05,-5.86,-2.29,0.58
0.1,0.0,1.05,-7.73,-3.74,0.61
0.12,0.01,1.02,-7.57,-2.26,1.34
0.08,0.02,0.97,0.85,-5.71,3.15
0.13,0.02,0.97,6.46,-1.42,4.84
0.1,0.01,0.99,9.66,1.21,4.09
0.06,0.01,0.99,12.96,5.48,1.57
0.08,0.02,1.02,13.91,6.9,1.21
0.07,0.04,1.04,15.34,2.64,1.57
0.04,0.02,1.06,16.29,-0.67,0.41
0.07,0.05,1.07,14.08,-2.72,0.24
0.08,0.06,1.05,13.98,-3.79,0.73
0.09,0.05,1.03,14.08,-4.49,0.79
0.1,0.06,1.03,13.16,-1.33,1.05
0.1,0.07,1.03,12.41,4.89,1.04
0.06,0.08,1.07,11.27,3.11,0.43
0.05,0.08,1.06,10.49,2.75,-0.08
0.06,0.08,1.07,10.43,2.46,-0.75
0.07,0.07,1.05,8.9,1.42,-0.6
0.06,0.08,1.05,8.56,-2.05,-1.39
0.08,0.08,1.05,7.07,-0.81,-1.85
0.08,0.08,1.04,6.27,0.18,-1.91
0.1,0.08,1.0,8.53,3.6,-1.42
0.08,0.08,1.0,9.89,3.45,-1.89
0.09,0.09,1.03,9.39,2.63,-0.69
0.06,0.1,1.06,7.28,-2.6,-1.24
0.06,0.1,1.07,4.38,-5.15,-2.21
0.09,0.1,1.03,4.32,-1.57,-2.69
0.08,0.09,1.04,2.66,-3.24,-3.37
0.08,0.1,1.07,1.54,-6.21,-3.04
0.11,0.09,1.02,2.37,-2.24,-2.53
0.1,0.1,1.02,1.54,-2.18,-2.2
0.11,0.1,1.05,0.41,-2.47,-1.59
0.1,0.1,1.02,0.64,-2.73,-1.79
0.08,0.1,1.02,-0.11,-2.6,-2.76
0.11,0.1,1.03,-2.7,-2.46,-2.6
0.09,0.1,1.04,-4.73,-5.79,-2.64
0.1,0.1,0.99,-4.66,-5.15,-2.73
0.11,0.1,0.99,-4.38,-3.1,-2.56
0.11,0.1,0.99,-4.63,-2.73,-2.67
0.12,0.1,1.01,-6.56,-6.02,-1.89
0.1,0.11,1.03,-8.7,-11.97,-2.09
0.14,0.1,0.98,-9.54,-2.61,1.31
0.1,0.11,0.99,-15.28,-3.74,-1.62
0.1,0.1,0.98,-18.41,-4.11,-4.2
0.11,0.09,1.03,-21.68,-9.27,-3.21
0.11,0.1,0.96,-21.48,-8.34,-6.23
0.13,0.07,0.91,-11.59,-7.28,-0.41
0.14,0.07,0.9,-8.72,-18.85,0.26
0.17,0.04,0.81,0.38,-17.16,2.29
0.16,0.06,0.95,-0.24,-23.73,2.93
0.16,0.08,0.99,-4.43,-25.66,1.89
0.17,0.08,0.97,-6.64,-15.3,0.26
0.25,0.11,0.89,-0.05,-0.6,3.92
0.2,0.09,0.96,4.67,7.71,5.77
0.15,0.07,1.03,6.03,6.17,7.5
0.15,0.07,1.03,5.63,9.74,7.65
0.13,0.08,1.05,5.77,10.99,7.8
0.1,0.06,1.03,6.72,6.41,7.5
0.09,0.05,1.05,5.89,4.11,6.14
0.09,0.05,1.05,3.98,6.18,4.52
0.12,0.05,1.03,3.85,8.37,4.27
0.09,0.05,1.03,5.47,5.66,4.02
0.09,0.05,1.02,6.85,4.9,2.75
0.1,0.06,1.01,7.66,5.04,2.52
0.09,0.06,1.01,9.82,1.69,2.24
0.09,0.07,1.02,11.79,0.03,0.82
0.09,0.08,1.03,10.11,-0.14,-0.72
0.12,0.07,1.07,6.09,-2.96,-0.79
0.12,0.09,1.04,4.85,-3.89,-0.23
0.15,0.1,0.98,6.5,1.1,0.18
0.14,0.1,1.01,6.55,3.3,0.61
0.13,0.1,0.99,7.42,4.78,1.28
0.12,0.1,0.97,9.42,3.6,1.04
0.12,0.1,0.99,9.88,1.97,0.5
0.11,0.1,1.0,8.73,0.43,-0.69
0.13,0.1,0.99,7.42,0.46,-0.67
0.17,0.11,0.94,10.15,3.28,0.79
0.15,0.11,0.94,11.42,1.65,2.24
0.15,0.12,1.0,10.61,-1.8,3.59
0.13,0.12,0.99,11.57,1.02,2.9
0.13,0.12,0.97,12.37,4.17,1.63
0.13,0.12,1.03,9.69,1.77,2.2
0.16,0.12,0.98,11.37,5.88,3.3
0.14,0.12,0.98,13.54,6.61,4.0
0.09,0.12,1.05,10.5,1.11,4.18
0.1,0.13,1.02,9.1,1.94,3.22
0.12,0.13,0.99,10.43,5.65,3.1
0.09,0.12,1.03,9.13,2.17,2.99
0.09,0.12,1.03,7.15,-4.12,2.35
0.13,0.13,0.97,8.44,2.46,2.89
0.1,0.13,1.02,7.79,-1.15,2.93
0.09,0.14,1.04,6.82,-2.82,2.0
0.1,0.13,1.02,6.17,0.85,0.47
0.12,0.13,1.02,3.27,1.27,1.18
0.14,0.14,1.0,3.88,3.3,2.79
0.08,0.14,1.01,3.42,-3.24,2.38
0.1,0.14,0.98,4.4,-2.96,1.74
0.14,0.14,0.97,4.55,0.96,2.44
0.09,0.14,1.0,4.05,-2.58,0.9
0.13,0.15,0.96,3.92,2.08,0.09
0.11,0.15,0.98,3.73,-1.63,0.15
0.14,0.15,0.96,5.25,-6.11,1.53
0.16,0.16,0.92,8.49,-5.88,2.56
0.17,0.16,0.91,12.38,-4.7,3.56
0.19,0.17,0.91,13.92,-1.73,4.66
0.2,0.19,0.96,12.69,-4.35,6.98
0.23,0.17,1.01,3.89,-6.12,8.56
0.15,0.2,0.98,7.85,-13.21,7.34
0.18,0.2,0.93,10.87,-3.21,6.05
0.19,0.2,1.03,8.58,-1.82,8.06
0.18,0.17,1.03,6.93,7.56,9.69
0.11,0.18,1.06,5.94,1.27,8.43
0.15,0.15,1.02,6.11,10.92,8.21
0.07,0.16,1.06,6.03,3.66,7.02
0.06,0.15,1.12,2.41,-1.47,6.09
0.08,0.14,1.07,1.07,-0.85,5.86
0.09,0.15,0.99,6.15,-0.12,5.83
0.08,0.14,0.99,9.59,2.55,4.85
0.07,0.14,1.03,11.68,-0.89,3.66
0.08,0.15,1.05,9.68,0.69,2.44
0.09,0.16,1.02,9.02,1.86,2.34
0.08,0.16,1.02,8.53,-1.02,2.5
0.08,0.17,0.99,10.26,-1.24,1.95
0.1,0.18,1.01,10.26,-1.3,1.85
0.11,0.18,0.99,10.02,-0.27,1.13
0.08,0.19,1.01,10.78,0.4,-0.47
0.16,0.2,0.99,9.59,1.25,1.53
0.14,0.2,0.94,12.23,6.37,2.0
0.14,0.21,0.96,11.01,8.21,0.95
0.12,0.21,1.01,9.39,3.56,2.09
0.15,0.22,0.96,10.37,5.36,3.05
0.12,0.24,0.92,10.87,7.04,-1.24
0.22,0.23,0.9,18.72,23.39,6.02
0.08,0.24,1.07,12.64,8.75,6.32
0.06,0.27,1.1,6.61,1.34,3.76
0.14,0.23,1.03,4.66,13.95,1.21
0.11,0.22,1.03,0.17,9.69,-2.06
0.14,0.21,0.99,7.31,15.57,6.37
0.1,0.21,1.08,1.98,8.27,3.76
0.11,0.23,1.0,0.37,11.97,3.85
0.09,0.22,1.0,1.04,13.22,2.87
0.09,0.22,1.03,-0.21,12.46,3.31
0.13,0.22,1.0,-0.5,15.82,5.19
0.12,0.22,0.97,1.24,17.54,5.82
0.08,0.21,1.0,-0.72,18.32,5.08
0.09,0.22,0.98,0.99,18.18,6.18
0.07,0.22,1.01,2.08,11.6,6.69
0.09,0.23,1.02,2.09,6.69,8.08
0.07,0.23,0.99,1.19,2.49,7.94
0.08,0.22,0.97,0.46,4.89,7.31
0.12,0.25,0.96,5.04,7.44,11.02
0.1,0.24,0.99,3.86,1.13,11.89
0.04,0.22,0.96,4.27,1.25,8.72
0.05,0.24,0.99,2.9,4.53,6.32
0.09,0.24,0.97,0.49,6.03,6.12
0.04,0.26,0.96,9.3,-8.87,4.87
0.15,0.24,0.9,12.15,3.56,8.64
0.11,0.24,1.02,6.17,3.73,8.18
0.1,0.24,0.98,2.6,12.56,5.63
0.09,0.24,0.97,3.8,11.39,5.19
0.1,0.25,0.95,5.98,11.97,7.01
0.1,0.25,0.96,9.45,12.98,8.69
0.08,0.25,0.94,15.83,7.97,10.98
0.09,0.24,1.0,11.8,14.49,10.89
0.05,0.23,1.0,10.34,13.95,9.79
0.02,0.24,1.02,8.9,12.49,9.53
-0.0,0.29,1.11,8.58,18.26,10.49
0.01,0.25,1.0,12.58,13.98,9.33
0.03,0.24,0.98,12.17,19.56,11.44
0.01,0.25,1.02,12.35,11.82,7.71
0.01,0.25,1.0,10.93,17.36,6.09
0.02,0.26,0.98,11.45,16.38,4.24
0.03,0.26,0.96,9.77,16.5,7.16
0.01,0.26,1.07,6.9,8.72,5.62
0.02,0.27,0.99,8.12,11.54,5.1
0.01,0.28,1.01,8.21,11.5,4.18
-0.01,0.27,1.03,5.89,5.68,3.76
0.0,0.27,0.98,6.38,6.75,2.89
0.02,0.27,0.99,5.77,10.69,2.11
-0.01,0.27,1.02,4.56,8.5,1.31
0.02,0.27,0.98,5.22,9.73,1.8
-0.01,0.27,0.97,5.91,8.46,0.92
-0.0,0.27,0.97,5.74,4.63,0.56
0.0,0.27,0.95,6.82,2.46,0.46
0.01,0.28,0.97,6.6,-0.44,0.5
0.03,0.27,0.95,7.36,2.67,-0.05
0.0,0.28,0.96,7.57,1.3,-0.75
0.04,0.29,0.94,8.18,3.76,-0.92
0.01,0.28,0.97,7.33,4.61,-1.82
0.05,0.29,0.97,6.2,7.13,0.11
0.05,0.29,0.98,6.76,6.82,2.4
0.03,0.29,0.97,7.33,7.48,3.1
-0.0,0.29,0.98,6.52,8.41,2.2
0.0,0.3,1.02,5.05,7.68,1.69
0.01,0.3,1.02,3.53,6.76,2.23
0.0,0.31,1.03,3.34,5.85,2.7
0.0,0.31,1.05,1.25,6.27,3.01
-0.02,0.32,1.06,-1.02,4.63,2.15
-0.03,0.32,1.07,-3.22,2.6,1.56
-0.02,0.32,1.07,-2.9,1.42,1.66
-0.02,0.31,1.04,-6.18,-1.02,1.24
-0.01,0.32,1.03,-8.69,-2.66,1.48
-0.02,0.31,1.01,-9.54,-3.1,1.05
-0.04,0.31,0.99,-10.31,-3.92,0.32
-0.04,0.3,0.98,-10.5,-4.96,-0.5
-0.06,0.29,0.99,-11.57,-7.65,-2.82
-0.04,0.29,0.97,-11.05,-9.02,-3.24
-0.05,0.29,0.97,-10.79,-11.8,-4.79
-0.04,0.29,0.97,-10.61,-13.83,-5.77
-0.04,0.3,0.97,-10.52,-14.56,-6.92
-0.03,0.3,0.99,-11.88,-15.44,-8.4
-0.02,0.29,1.01,-12.93,-15.91,-9.3
-0.02,0.29,1.0,-13.79,-16.95,-10.05
-0.01,0.29,1.01,-14.27,-18.12,-10.44
0.0,0.29,1.0,-15.33,-18.72,-10.84
0.01,0.28,0.99,-15.45,-19.01,-10.85
-0.03,0.27,1.0,-15.13,-22.11,-12.47
-0.0,0.28,1.02,-16.21,-25.89,-13.5
0.01,0.28,1.03,-17.51,-27.25,-13.85
0.04,0.27,1.01,-18.7,-24.29,-13.44
0.05,0.26,0.98,-18.38,-24.03,-12.84
0.08,0.25,0.96,-17.95,-20.31,-11.31
0.08,0.24,0.95,-16.87,-19.94,-10.6
0.09,0.24,0.98,-19.37,-19.66,-10.32
0.09,0.23,0.93,-16.84,-16.69,-10.75
0.1,0.23,0.92,-15.4,-18.0,-10.38
0.1,0.22,0.92,-12.92,-19.86,-9.91
0.13,0.22,0.91,-10.7,-17.07,-8.84
0.14,0.21,0.9,-8.63,-12.9,-7.85
0.17,0.22,0.9,-5.15,-6.96,-5.83
0.14,0.21,0.94,-3.5,-7.25,-3.95
0.14,0.21,0.94,-3.37,-6.31,-2.9
0.12,0.22,0.97,-4.35,-8.73,-2.56
0.14,0.22,0.96,-4.41,-6.5,-2.24
0.17,0.22,0.91,-1.37,0.93,-0.53
0.15,0.21,0.91,1.33,2.55,0.75
0.16,0.22,0.92,3.71,3.16,2.69
0.16,0.19,0.88,7.53,8.23,3.97
0.12,0.21,0.88,9.08,7.98,3.1
0.12,0.23,0.9,11.76,5.42,4.09
0.13,0.23,0.93,11.79,5.3,5.07
0.13,0.22,0.91,13.83,10.43,5.25
0.15,0.21,0.9,16.52,18.69,6.2
0.12,0.23,0.93,19.48,16.17,8.11
0.1,0.21,0.97,19.94,12.96,8.6
0.08,0.22,1.0,18.37,12.92,8.24
0.05,0.23,1.02,18.17,8.63,6.55
0.05,0.21,1.0,18.64,9.44,3.77
0.08,0.21,0.98,19.53,11.98,2.08
0.08,0.2,0.97,20.67,14.5,1.36
0.08,0.2,0.93,24.87,18.02,0.76
0.08,0.22,0.9,29.18,18.18,-0.15
0.08,0.23,0.92,31.1,15.92,0.18
0.04,0.25,1.02,29.1,9.25,-0.37
0.05,0.27,1.02,26.7,5.47,0.11
0.07,0.28,1.04,23.48,-1.44,1.71
