accl_x,accl_y,accl_z,gyro_x,gyro_y,gyro_z
0.29,-0.07,0.8,-89.97,-3.68,16.87
0.31,-0.1,0.77,-85.05,4.05,17.47
0.3,-0.12,0.76,-80.93,1.65,18.08
0.31,-0.15,0.73,-73.54,7.4,19.21
0.25,-0.17,0.76,-70.53,5.65,20.58
0.25,-0.16,0.79,-73.6,5.85,19.62
0.26,-0.19,0.72,-70.17,9.02,19.59
0.24,-0.21,0.72,-66.35,7.59,19.83
0.22,-0.21,0.74,-65.5,3.82,20.5
0.24,-0.24,0.69,-64.15,9.65,20.31
0.19,-0.25,0.71,-63.92,11.45,19.11
0.18,-0.29,0.67,-58.84,8.92,19.6
0.15,-0.3,0.71,-56.7,0.23,19.65
0.14,-0.31,0.68,-51.66,-5.3,20.31
0.14,-0.33,0.63,-46.23,1.11,18.75
0.11,-0.36,0.63,-42.73,-0.35,16.56
0.12,-0.37,0.63,-39.01,-0.93,14.92
0.08,-0.38,0.68,-40.49,-7.24,12.4
0.07,-0.38,0.69,-39.76,-11.92,9.56
0.12,-0.37,0.63,-34.93,-13.1,9.45
0.15,-0.4,0.59,-28.44,-8.79,10.02
0.16,-0.42,0.55,-21.15,-2.82,10.12
0.14,-0.42,0.54,-12.78,-0.38,9.54
0.09,-0.44,0.54,-6.46,-2.34,7.65
0.08,-0.44,0.53,-0.69,-7.8,6.47
0.11,-0.45,0.57,-1.53,-8.0,5.68
0.09,-0.44,0.59,-1.11,-12.09,4.66
0.11,-0.43,0.51,5.1,-6.34,2.53
0.12,-0.44,0.48,12.11,-1.1,2.29
0.11,-0.43,0.49,19.63,-1.44,3.74
0.08,-0.43,0.48,24.02,-1.13,3.88
0.04,-0.41,0.56,23.31,-1.07,2.43
0.01,-0.41,0.62,19.25,-8.43,-0.18
0.02,-0.39,0.55,24.76,-3.69,-5.19
0.06,-0.39,0.52,34.27,0.56,-7.5
0.08,-0.4,0.59,37.57,-0.24,-7.16
0.11,-0.39,0.66,38.95,-0.12,-6.23
0.09,-0.39,0.72,37.07,-2.02,-5.4
0.09,-0.3,0.87,34.64,7.5,-7.65
0.09,-0.38,0.81,39.07,8.14,-10.4
0.12,-0.36,0.85,43.68,9.83,-9.57
0.1,-0.36,0.98,39.69,5.95,-10.56
0.13,-0.43,0.93,40.23,7.92,-10.67
0.13,-0.34,1.07,35.76,12.75,-11.88
0.1,-0.34,1.14,33.1,4.23,-11.5
0.14,-0.34,1.13,29.97,2.73,-12.41
0.18,-0.37,1.07,35.08,0.81,-8.26
0.15,-0.38,1.12,32.98,-1.28,-8.21
0.16,-0.38,1.14,27.88,1.83,-10.67
0.14,-0.37,1.1,28.11,0.85,-12.27
0.14,-0.34,1.14,27.02,-6.81,-11.74
0.16,-0.34,1.15,25.47,-11.95,-11.25
0.17,-0.35,1.11,26.17,-14.95,-10.14
0.16,-0.34,1.16,21.16,-17.91,-10.44
0.22,-0.22,1.05,21.45,-12.38,-12.02
0.22,-0.32,1.04,19.59,-7.02,-11.54
0.25,-0.31,1.06,17.21,-6.79,-8.41
0.23,-0.32,0.99,19.57,-5.6,-6.79
0.23,-0.31,1.01,19.5,-4.9,-6.17
0.22,-0.29,1.01,19.51,-4.26,-5.08
0.23,-0.29,0.98,21.25,1.51,-4.27
0.17,-0.28,1.08,16.69,-3.19,-4.41
0.17,-0.27,1.07,12.21,-4.7,-4.93
0.2,-0.27,1.0,12.24,1.33,-5.47
0.18,-0.28,1.0,13.19,-3.33,-4.79
0.18,-0.27,1.0,12.23,-9.56,-3.91
0.22,-0.27,0.93,14.96,-4.75,-4.08
0.22,-0.27,0.94,16.89,-3.86,-3.4
0.18,-0.25,1.0,15.04,-11.47,-3.22
0.16,-0.23,0.99,14.6,-11.92,-5.44
0.2,-0.24,0.98,12.21,-9.37,-6.89
0.2,-0.24,0.96,10.09,-11.51,-6.89
0.24,-0.25,0.94,12.92,-10.7,-5.21
0.23,-0.24,0.92,15.44,-10.7,-4.44
0.21,-0.24,0.94,15.42,-12.02,-5.34
0.23,-0.22,0.94,15.48,-11.73,-5.79
0.27,-0.22,0.89,20.03,-8.23,-4.02
0.24,-0.22,0.96,17.68,-12.95,-2.82
0.21,-0.22,1.04,11.59,-17.95,-4.23
0.25,-0.21,0.97,10.79,-15.02,-4.46
0.28,-0.22,0.94,11.08,-9.6,-3.8
0.25,-0.22,0.96,12.85,-11.74,-4.9
0.24,-0.21,0.94,18.72,-9.19,-3.05
0.24,-0.22,1.01,15.31,-7.4,-2.63
0.21,-0.22,1.1,6.05,-9.47,-3.51
0.23,-0.21,1.03,2.96,-7.05,-4.32
0.25,-0.22,0.94,6.73,-4.85,-4.78
0.25,-0.21,0.97,8.84,-4.93,-4.79
0.25,-0.2,0.98,9.68,-4.75,-5.05
0.25,-0.2,1.0,7.57,-3.16,-5.37
0.25,-0.19,1.0,7.48,-2.2,-5.36
0.25,-0.19,1.0,7.27,-6.06,-5.04
0.24,-0.13,0.98,8.21,-9.56,-4.72
0.25,-0.18,1.0,8.14,-7.59,-6.05
0.23,-0.17,1.01,6.53,-6.66,-7.04
0.27,-0.17,0.97,7.71,-2.76,-5.22
0.25,-0.17,0.97,10.73,-3.69,-4.11
0.21,-0.16,1.0,11.69,-7.45,-5.34
0.2,-0.16,1.02,9.82,-10.4,-7.25
0.18,-0.16,1.04,5.82,-13.37,-9.79
0.19,-0.16,1.01,7.44,-15.8,-10.29
0.16,-0.14,1.03,7.79,-21.63,-11.08
0.17,-0.1,1.07,7.76,-28.67,-10.09
0.21,-0.07,1.01,8.95,-29.4,-11.13
0.32,-0.07,0.97,13.45,-17.76,-9.66
0.36,-0.12,0.92,16.32,-1.39,-10.18
0.38,-0.13,1.1,-3.51,14.35,-15.69
0.45,-0.16,1.13,-28.95,32.44,-16.43
0.49,-0.17,1.08,-45.85,42.46,-11.3
0.37,-0.2,0.94,-41.98,26.99,-7.48
0.32,-0.21,0.81,-27.01,7.88,-2.53
0.31,-0.24,0.86,-20.27,0.64,-2.38
0.34,-0.23,0.86,-18.63,13.02,-3.59
0.36,-0.24,0.84,-17.01,31.05,-5.68
0.31,-0.23,0.88,-11.01,27.31,-2.55
0.21,-0.22,1.01,-9.68,2.73,0.31
0.15,-0.21,1.02,-9.01,-13.34,-1.63
0.23,-0.21,0.95,-5.34,-10.34,-3.24
0.25,-0.22,0.93,-2.32,-17.19,-2.67
0.22,-0.2,1.04,-6.37,-37.65,-1.54
0.29,-0.17,0.99,-7.16,-38.95,2.35
0.43,-0.18,0.89,-5.92,-5.02,7.83
0.35,-0.18,0.93,-4.29,11.76,11.77
0.24,-0.2,0.95,0.17,17.79,10.69
0.24,-0.22,0.9,0.61,36.31,7.1
0.2,-0.22,0.91,14.6,30.43,8.4
0.17,-0.24,0.94,20.64,31.01,7.05
0.15,-0.22,0.97,23.6,22.52,4.23
0.14,-0.22,0.99,23.74,10.53,1.56
0.19,-0.19,1.06,17.89,5.25,1.69
0.22,-0.16,1.06,7.89,7.77,-1.04
0.27,-0.16,0.97,6.0,19.07,-2.05
0.26,-0.16,0.92,7.01,21.45,-1.76
0.26,-0.16,0.97,6.4,16.44,1.22
0.22,-0.16,1.0,0.9,8.35,2.15
0.24,-0.17,1.02,-3.44,8.17,2.64
0.24,-0.17,0.96,-4.23,13.83,2.72
0.23,-0.2,0.9,0.14,15.69,2.84
0.23,-0.21,0.92,5.54,13.57,3.3
0.2,-0.2,0.98,2.17,11.36,2.05
0.21,-0.18,0.97,0.6,8.81,2.52
0.21,-0.16,0.99,-0.37,4.53,4.2
0.17,-0.17,1.01,-0.15,-0.44,3.88
0.14,-0.19,0.99,-0.93,-4.03,1.83
0.19,-0.17,0.94,1.62,3.15,-0.23
0.19,-0.16,0.9,9.57,3.3,-0.03
0.2,-0.17,0.95,15.1,-2.92,2.76
0.18,-0.16,1.05,12.31,-7.08,2.64
0.17,-0.15,1.05,10.14,-10.49,2.06
0.16,-0.16,0.97,13.98,-15.53,-3.13
0.17,-0.18,0.96,20.46,-23.44,-4.12
0.15,-0.2,0.97,24.52,-38.2,-10.4
0.17,-0.19,0.97,25.74,-48.41,-15.16
0.24,-0.17,1.03,20.06,-46.05,-15.73
0.37,-0.13,1.06,11.19,-22.93,-9.25
0.38,-0.11,0.99,9.4,5.57,-3.19
0.27,-0.14,0.94,14.96,18.99,-5.37
0.25,-0.17,0.95,17.11,23.77,-8.12
0.25,-0.17,1.02,15.39,18.63,-6.78
0.29,-0.16,1.05,6.99,14.89,-5.04
0.25,-0.18,1.12,-3.69,10.79,-1.66
0.2,-0.15,1.1,-10.52,3.86,-4.82
0.18,-0.16,0.99,-9.76,-1.02,-10.96
0.3,-0.14,0.91,-5.51,7.79,-11.79
0.28,-0.12,1.04,-9.54,3.77,-9.71
0.22,-0.15,1.07,-13.95,0.32,-9.95
0.17,-0.13,0.98,-17.19,-4.99,-17.69
0.17,-0.14,0.99,-14.24,-19.42,-21.56
0.24,-0.1,1.05,-16.08,-31.31,-22.43
0.32,-0.1,1.06,-17.07,-36.76,-16.14
0.41,-0.07,0.94,-15.13,-18.18,-8.47
0.39,-0.1,0.87,-6.75,-0.84,-1.71
0.28,-0.13,0.88,1.82,2.96,-3.08
0.25,-0.15,0.86,11.36,7.59,-6.55
0.25,-0.15,0.88,17.22,8.93,-7.53
0.25,-0.13,0.96,17.69,10.41,-7.3
0.23,-0.12,1.03,12.55,2.14,-7.47
0.26,-0.11,1.02,10.47,2.46,-6.32
0.23,-0.08,0.95,14.35,-0.82,-8.17
0.24,-0.09,0.98,17.54,-7.34,-6.79
0.28,-0.09,0.99,19.08,-6.06,-5.65
0.25,-0.09,0.99,16.34,0.82,-8.43
0.25,-0.09,0.98,15.91,8.95,-9.74
0.26,-0.09,1.01,15.86,5.27,-7.79
0.25,-0.09,1.06,15.34,-4.63,-4.75
0.26,-0.08,1.05,14.35,-6.38,-3.22
0.26,-0.09,1.02,15.11,-6.98,-2.24
0.26,-0.09,0.98,17.15,-7.08,-1.47
0.28,-0.08,0.98,19.86,-0.55,-1.19
0.24,-0.09,1.0,20.29,4.2,-3.3
0.2,-0.08,1.05,16.89,3.01,-5.24
0.24,-0.08,1.05,14.72,-0.24,-3.66
0.23,-0.08,1.04,13.91,-3.44,-2.29
0.22,-0.05,1.05,11.56,-5.08,-2.09
0.23,-0.06,1.03,9.73,-2.85,-2.89
0.23,-0.06,0.98,11.22,0.9,-3.86
0.22,-0.08,0.96,12.78,-1.39,-4.55
0.22,-0.07,0.98,14.32,-5.95,-4.84
0.24,-0.06,0.96,15.08,-5.97,-5.73
0.24,-0.06,0.98,14.84,-5.07,-6.27
0.24,-0.05,1.02,11.33,-2.93,-7.45
0.29,-0.03,0.99,10.93,3.31,-7.39
0.29,-0.03,0.98,10.69,6.41,-7.18
0.3,-0.03,1.01,9.51,3.8,-3.79
0.27,-0.03,0.98,10.55,0.96,-2.99
0.25,-0.03,1.0,10.02,0.35,-4.72
0.26,-0.02,1.03,6.93,-0.34,-6.38
0.3,-0.02,0.99,7.6,0.85,-5.62
0.34,-0.01,0.94,10.53,2.38,-2.27
0.3,-0.01,0.97,12.5,-0.15,-0.09
0.27,-0.01,1.01,9.36,-1.53,-1.08
0.26,-0.01,1.05,4.26,-2.05,-2.52
0.29,-0.0,1.02,1.34,2.02,-3.36
0.31,-0.01,0.96,1.68,1.6,-1.77
0.27,-0.01,1.06,-4.34,-6.69,-1.07
0.3,-0.01,1.07,-15.33,-11.08,-1.44
0.31,0.04,1.14,-31.85,-9.24,-1.86
0.35,-0.01,1.17,-45.76,6.95,-1.4
0.31,-0.04,1.06,-52.09,0.35,-0.55
0.25,-0.04,0.95,-49.69,-1.65,-2.24
0.22,-0.03,0.91,-45.16,-0.15,-11.05
0.25,0.09,1.02,-32.47,19.82,-10.17
0.32,-0.11,0.8,-23.05,22.96,-8.12
0.28,-0.1,0.84,-16.63,24.21,-7.01
0.15,-0.04,1.04,-17.08,21.51,-6.89
0.22,-0.09,0.94,-22.05,22.03,-7.63
0.18,-0.11,0.9,-15.51,19.83,-7.91
0.21,-0.09,0.82,-3.37,26.02,-12.44
0.18,-0.06,0.93,0.96,13.19,-12.75
0.22,-0.08,0.97,4.44,9.04,-7.34
0.22,-0.06,1.0,3.65,9.69,-5.83
0.23,-0.07,1.0,1.95,7.97,-3.28
0.23,-0.11,0.95,2.09,14.7,-2.56
0.17,-0.08,1.03,1.15,10.66,-4.0
0.14,-0.05,1.17,-6.72,6.34,-8.41
0.23,-0.08,1.11,-10.18,5.16,-6.37
0.25,-0.12,0.96,-6.05,6.27,-4.4
0.27,-0.09,0.98,-0.53,4.41,-0.03
0.21,-0.1,1.01,1.79,1.33,1.01
0.16,-0.11,1.02,1.05,5.53,-2.58
0.21,-0.1,0.99,1.71,10.02,-4.2
0.25,-0.1,0.99,4.72,7.3,-1.65
0.23,-0.09,1.03,7.73,-3.91,2.43
0.22,-0.09,1.02,8.32,-8.49,4.84
0.2,-0.09,1.01,6.5,-4.09,2.85
0.2,-0.09,1.04,1.63,-0.31,1.3
0.2,-0.09,1.0,2.89,2.32,-0.38
0.25,-0.09,0.95,7.15,7.56,1.04
0.21,-0.09,0.95,12.14,5.86,1.92
0.18,-0.09,0.95,12.92,5.44,0.84
0.14,-0.09,0.99,11.98,-0.82,-2.38
0.16,-0.08,1.02,8.79,-3.66,-4.0
0.19,-0.07,1.0,7.5,1.63,-5.66
0.2,-0.07,0.97,8.52,7.47,-6.75
0.21,-0.07,0.97,10.34,8.46,-5.63
0.24,-0.07,0.99,10.61,5.53,-2.37
0.19,-0.06,1.01,12.08,-1.02,-1.39
0.2,-0.06,1.01,11.91,-1.04,-1.42
0.14,-0.18,1.0,11.65,2.75,-3.42
0.19,-0.06,1.01,11.92,4.49,-3.85
0.22,-0.05,1.02,10.29,7.91,-4.29
0.2,-0.03,1.06,6.17,2.92,-2.69
0.21,-0.05,1.02,7.79,0.67,-1.21
0.2,-0.05,1.01,8.87,0.53,-0.38
0.19,-0.05,1.02,6.81,2.67,-2.0
0.17,-0.06,1.0,7.98,5.92,-4.37
0.16,-0.05,1.03,6.93,2.38,-5.59
0.2,-0.04,1.0,6.49,2.32,-5.65
0.2,-0.04,1.02,5.27,-1.71,-4.14
0.23,-0.02,1.04,4.06,0.58,-2.46
0.12,-0.24,0.99,2.24,3.39,-2.03
0.2,-0.03,1.01,4.73,3.51,-0.98
0.17,-0.03,0.99,5.6,3.89,-1.47
0.18,-0.06,0.96,6.05,8.82,-1.74
0.2,-0.03,0.99,6.41,10.99,-1.08
0.21,-0.03,0.99,7.31,15.42,0.44
0.16,-0.02,1.0,9.21,5.42,0.5
0.15,-0.03,1.02,8.99,2.34,-0.7
0.2,-0.02,1.0,7.02,6.72,-1.28
0.24,-0.02,0.97,7.39,14.15,-0.03
0.23,0.0,0.99,7.86,15.24,3.44
0.17,-0.02,1.0,8.14,12.78,5.82
0.16,-0.01,0.99,8.58,14.92,2.6
0.19,0.04,1.02,13.15,22.78,4.17
0.16,-0.01,0.97,16.12,22.31,3.54
0.13,-0.02,1.02,16.84,15.54,2.35
0.13,-0.01,1.02,14.2,10.46,0.44
0.1,-0.0,1.06,10.55,0.29,-1.4
0.1,0.0,1.07,8.32,-2.05,24.93
0.14,0.0,1.05,8.78,1.18,-2.11
0.1,-0.07,1.05,7.44,1.05,-2.56
0.14,0.0,1.04,6.46,1.27,-2.96
0.15,0.01,1.0,9.66,0.92,-2.37
0.15,0.01,1.02,8.35,3.25,-2.87
0.17,0.02,1.03,6.29,4.84,-2.66
0.16,0.02,1.04,4.06,3.4,-2.38
0.18,0.02,1.02,4.24,2.24,-0.79
0.16,0.02,0.97,6.81,-1.44,0.56
0.18,0.03,1.01,5.07,0.14,1.68
0.21,0.04,0.98,5.37,7.71,14.75
0.2,0.04,1.0,2.14,20.29,3.94
0.18,0.04,0.94,5.13,20.96,5.39
0.11,0.02,0.99,1.4,31.13,41.25
0.04,0.03,1.03,5.3,15.85,0.67
0.08,0.01,1.04,3.82,10.14,-1.19
-0.0,-0.16,1.0,5.92,5.85,-0.98
0.14,0.02,0.96,9.95,2.41,1.83
0.12,0.03,0.98,12.69,1.04,2.64
0.14,0.04,0.98,12.23,7.54,3.01
0.1,0.04,0.99,12.34,11.94,1.98
0.07,0.05,1.04,11.13,9.4,-0.66
0.08,0.04,1.06,9.31,8.95,-1.77
0.09,0.05,1.06,6.9,6.35,-2.14
0.14,0.05,1.02,8.38,9.54,12.66
0.13,0.05,1.03,6.17,12.78,0.46
0.11,0.05,1.04,6.21,12.85,1.37
0.08,0.04,1.03,6.81,12.5,0.78
0.07,0.04,1.06,3.39,9.05,-0.24
0.07,0.05,1.05,4.43,7.6,-1.36
0.11,0.05,1.03,4.75,8.7,-0.46
0.1,0.06,1.06,3.51,9.11,0.37
0.07,0.05,1.05,4.05,8.49,0.23
0.07,0.07,1.05,1.94,7.63,-0.73
0.08,0.05,1.03,1.79,4.53,-0.61
0.1,0.05,1.03,1.34,3.73,-0.67
0.09,0.06,1.04,0.55,6.0,0.0
0.12,0.06,1.04,-1.15,7.59,1.74
0.14,0.06,1.06,-3.88,14.35,3.74
0.09,0.05,1.07,-5.45,14.61,4.56
0.03,0.04,1.08,-8.02,10.64,3.04
0.04,0.03,1.04,-8.12,8.47,1.74
0.02,0.02,1.03,-8.03,1.65,0.43
0.01,0.02,1.02,-7.34,-4.05,-2.08
0.05,0.03,0.94,-4.12,0.06,-3.1
0.09,0.04,0.98,-3.18,1.66,-2.09
0.09,0.05,0.95,-1.66,3.82,-1.1
0.07,0.05,0.97,-0.6,4.69,-1.16
0.08,0.06,1.01,-3.45,6.26,-1.19
0.09,0.06,0.96,-2.0,7.18,0.0
0.06,0.06,0.96,1.86,6.63,0.27
0.04,0.06,0.99,1.65,5.8,-0.87
0.04,0.05,1.01,2.4,5.05,-1.05
0.07,0.06,1.0,3.5,7.66,-0.4
0.05,0.07,1.0,4.67,7.59,-0.95
0.06,0.07,1.02,4.27,6.95,-0.75
0.06,0.08,1.06,2.38,5.97,-0.95
0.05,0.07,1.03,2.55,6.21,-1.08
0.07,0.05,1.01,2.0,6.31,-0.14
0.07,0.06,1.04,1.44,10.06,0.35
0.05,0.06,1.01,4.72,3.79,1.98
0.05,0.07,1.02,3.59,11.25,0.17
0.03,0.06,1.03,3.86,5.33,-0.14
0.05,0.06,1.0,6.93,10.52,-0.47
0.06,0.05,1.04,6.23,0.41,3.02
0.07,0.07,1.03,4.84,12.02,2.17
0.06,0.06,1.02,4.05,18.52,3.88
0.04,0.04,1.04,2.49,21.82,4.58
0.05,0.05,1.07,-1.79,34.2,9.54
-0.02,0.07,1.08,-7.48,27.88,5.07
-0.12,0.05,0.98,0.06,11.88,-1.54
-0.02,0.04,1.02,1.51,2.66,-1.4
-0.01,0.06,1.03,0.66,-1.21,-0.6
-0.0,0.05,0.99,1.76,-6.52,-0.56
-0.01,0.05,0.98,2.73,-1.53,-2.37
-0.01,0.05,1.0,3.95,-2.27,-2.41
0.02,0.05,0.99,4.78,-0.12,-1.37
-0.01,0.04,1.04,4.53,-1.54,-1.73
